time,gFx,gFy,gFz,ax,ay,az,wx,wy,wz
2022-12-29 8:20:44.8780,-0.126,-0.268,-0.985,0.15,-0.44,0.6,-0.25,-0.43,-0.07
2022-12-29 8:20:44.8870,-0.14,-0.256,-0.944,0.24,-0.49,0.13,-0.12,-0.39,-0.13
2022-12-29 8:20:44.8970,-0.154,-0.25,-0.921,0.31,-0.62,-0.18,0.04,-0.34,-0.19
2022-12-29 8:20:44.9070,-0.153,-0.256,-0.905,0.43,-0.57,-0.28,0.16,-0.28,-0.28
2022-12-29 8:20:44.9170,-0.152,-0.271,-0.895,0.29,-0.53,-0.48,0.22,-0.19,-0.34
2022-12-29 8:20:44.9270,-0.16,-0.295,-0.901,0.44,-0.3,-0.41,0.23,-0.14,-0.34
2022-12-29 8:20:44.9370,-0.146,-0.304,-0.912,0.33,-0.2,-0.33,0.17,-0.13,-0.33
2022-12-29 8:20:44.9470,-0.136,-0.319,-0.899,0.21,-0.09,-0.32,0.1,-0.09,-0.29
2022-12-29 8:20:44.9570,-0.134,-0.331,-0.878,0.18,0.04,-0.54,0.06,-0.03,-0.24
2022-12-29 8:20:44.9670,-0.125,-0.34,-0.857,0.13,0.13,-0.74,0.03,0.05,-0.17
2022-12-29 8:20:44.9770,-0.115,-0.353,-0.832,0.04,0.23,-0.97,0.04,0.14,-0.1
2022-12-29 8:20:44.9870,-0.103,-0.37,-0.813,-0.04,0.38,-1.2,0.07,0.25,-0.03
2022-12-29 8:20:44.9970,-0.085,-0.379,-0.828,-0.16,0.51,-1.2,0.1,0.34,0.04
2022-12-29 8:20:45.0070,-0.065,-0.381,-0.868,-0.33,0.53,-0.87,0.1,0.39,0.1
2022-12-29 8:20:45.0170,-0.048,-0.383,-0.91,-0.49,0.54,-0.44,0.08,0.39,0.15
2022-12-29 8:20:45.0270,-0.038,-0.38,-0.943,-0.58,0.54,-0.09,0.02,0.36,0.18
2022-12-29 8:20:45.0370,-0.037,-0.375,-0.974,-0.6,0.5,0.21,-0.07,0.3,0.2
2022-12-29 8:20:45.0470,-0.045,-0.374,-0.999,-0.54,0.48,0.48,-0.17,0.22,0.23
2022-12-29 8:20:45.0570,-0.061,-0.371,-1.015,-0.39,0.5,0.66,-0.26,0.13,0.27
2022-12-29 8:20:45.0670,-0.066,-0.355,-1.019,-0.3,0.43,0.75,-0.3,0.03,0.3
2022-12-29 8:20:45.0770,-0.07,-0.325,-1.013,-0.28,0.21,0.69,-0.32,-0.06,0.3
2022-12-29 8:20:45.0870,-0.079,-0.301,-1.006,-0.24,-0.03,0.63,-0.32,-0.12,0.28
2022-12-29 8:20:45.0970,-0.094,-0.284,-0.991,-0.12,-0.19,0.51,-0.3,-0.16,0.25
2022-12-29 8:20:45.1060,-0.108,-0.271,-0.968,-0.01,-0.31,0.29,-0.25,-0.18,0.22
2022-12-29 8:20:45.1170,-0.118,-0.26,-0.946,0.09,-0.4,0.06,-0.18,-0.17,0.18
2022-12-29 8:20:45.1260,-0.129,-0.254,-0.928,0.16,-0.47,-0.13,-0.12,-0.14,0.16
2022-12-29 8:20:45.1360,-0.142,-0.254,-0.918,0.28,-0.47,-0.26,-0.06,-0.1,0.14
2022-12-29 8:20:45.1460,-0.15,-0.252,-0.907,0.38,-0.47,-0.36,-0.01,-0.04,0.12
2022-12-29 8:20:45.1560,-0.151,-0.25,-0.901,0.41,-0.51,-0.46,0.04,0.02,0.08
2022-12-29 8:20:45.1660,-0.145,-0.252,-0.899,0.38,-0.5,-0.47,0.07,0.08,0.05
2022-12-29 8:20:45.1760,-0.135,-0.252,-0.909,0.31,-0.49,-0.44,0.07,0.12,0.02
2022-12-29 8:20:45.1860,-0.13,-0.261,-0.916,0.24,-0.48,-0.32,0.07,0.15,-0.01
2022-12-29 8:20:45.1960,-0.121,-0.276,-0.936,0.19,-0.31,-0.22,0.07,0.12,-0.03
2022-12-29 8:20:45.2060,-0.114,-0.273,-0.948,0.12,-0.3,0.0,0.09,0.1,-0.08
2022-12-29 8:20:45.2160,-0.099,-0.28,-0.959,0.01,-0.3,0.04,0.08,0.09,-0.1
2022-12-29 8:20:45.2260,-0.094,-0.288,-0.985,-0.07,-0.19,0.27,0.05,0.02,-0.11
2022-12-29 8:20:45.2360,-0.099,-0.285,-0.997,-0.08,-0.21,0.48,0.02,-0.03,-0.13
2022-12-29 8:20:45.2450,-0.114,-0.289,-0.979,0.07,-0.2,0.4,-0.01,-0.06,-0.16
2022-12-29 8:20:45.2560,-0.113,-0.291,-0.96,0.11,-0.15,0.2,-0.03,-0.1,-0.18
2022-12-29 8:20:45.2660,-0.111,-0.289,-0.934,0.07,-0.16,-0.03,-0.06,-0.12,-0.21
2022-12-29 8:20:45.2760,-0.1,-0.282,-0.897,0.01,-0.21,-0.35,-0.07,-0.07,-0.23
2022-12-29 8:20:45.2860,-0.104,-0.291,-0.892,-0.05,-0.18,-0.59,-0.07,-0.05,-0.24
2022-12-29 8:20:45.2960,-0.089,-0.295,-0.887,-0.03,-0.11,-0.55,-0.09,-0.01,-0.24
2022-12-29 8:20:45.3060,-0.049,-0.308,-0.902,-0.39,-0.02,-0.57,-0.14,0.02,-0.22
2022-12-29 8:20:45.3160,-0.033,-0.333,-0.94,-0.64,0.2,-0.21,-0.22,0.03,-0.17
2022-12-29 8:20:45.3250,-0.046,-0.368,-0.967,-0.62,0.55,0.07,-0.31,0.01,-0.07
2022-12-29 8:20:45.3360,-0.073,-0.387,-0.99,-0.37,0.84,0.31,-0.38,-0.05,0.01
2022-12-29 8:20:45.3460,-0.08,-0.396,-0.999,-0.23,1.01,0.44,-0.4,-0.15,0.08
2022-12-29 8:20:45.3560,-0.076,-0.374,-1.023,-0.27,0.97,0.54,-0.41,-0.3,0.11
2022-12-29 8:20:45.3650,-0.063,-0.35,-1.056,-0.4,0.72,0.99,-0.43,-0.48,0.09
2022-12-29 8:20:45.3760,-0.073,-0.303,-1.252,-0.57,0.48,1.37,-0.66,-0.98,0.07
2022-12-29 8:20:45.3850,-0.12,-0.27,-1.279,-0.2,0.02,4.06,-0.95,-1.23,-0.0
2022-12-29 8:20:45.3950,-0.135,-0.279,-1.084,-0.13,0.19,1.64,-1.17,-1.42,-0.1
2022-12-29 8:20:45.4050,-0.191,-0.199,-1.037,0.12,-0.08,1.06,-1.34,-1.42,-0.15
2022-12-29 8:20:45.4150,-0.212,-0.146,-0.964,0.47,-0.79,0.27,-1.43,-1.33,-0.15
2022-12-29 8:20:45.4250,-0.15,-0.18,-0.872,0.0,-0.58,-0.47,-1.41,-1.15,-0.09
2022-12-29 8:20:45.4360,-0.1,-0.241,-0.79,-0.75,0.09,-1.44,-1.26,-0.86,0.05
2022-12-29 8:20:45.4450,-0.123,-0.298,-0.754,-0.84,0.81,-1.96,-1.04,-0.39,0.26
2022-12-29 8:20:45.4550,-0.165,-0.303,-0.773,-0.4,1.19,-2.03,-0.79,0.08,0.43
2022-12-29 8:20:45.4650,-0.159,-0.27,-0.863,-0.25,0.99,-1.37,-0.58,0.31,0.45
2022-12-29 8:20:45.4750,-0.146,-0.245,-0.941,-0.41,0.77,-0.49,-0.45,0.42,0.37
2022-12-29 8:20:45.4850,-0.169,-0.211,-0.984,-0.28,0.54,0.03,-0.38,0.47,0.29
2022-12-29 8:20:45.4950,-0.192,-0.167,-0.993,0.1,0.11,0.24,-0.42,0.49,0.19
2022-12-29 8:20:45.5050,-0.167,-0.193,-0.978,-0.02,0.16,0.1,-0.46,0.67,0.18
2022-12-29 8:20:45.5150,-0.213,-0.213,-0.972,0.22,0.51,0.03,-0.5,0.73,0.21
2022-12-29 8:20:45.5250,-0.196,-0.225,-0.92,0.53,0.68,-0.32,-0.46,0.78,0.28
2022-12-29 8:20:45.5350,-0.149,-0.207,-0.875,0.1,0.72,-0.87,-0.4,0.95,0.36
2022-12-29 8:20:45.5450,-0.104,-0.162,-0.81,-0.19,0.32,-1.4,-0.28,1.17,0.38
2022-12-29 8:20:45.5550,-0.07,-0.162,-0.788,-0.51,0.14,-1.92,-0.13,1.33,0.35
2022-12-29 8:20:45.5650,-0.07,-0.209,-0.791,-0.46,0.47,-1.81,0.02,1.54,0.35
2022-12-29 8:20:45.5750,-0.007,-0.238,-0.683,-0.58,0.9,-2.5,0.22,1.98,0.37
2022-12-29 8:20:45.5850,0.054,-0.215,-0.61,-1.11,0.78,-3.57,0.46,2.4,0.33
2022-12-29 8:20:45.5950,0.088,-0.215,-0.688,-1.27,0.57,-3.41,0.72,2.75,0.37
2022-12-29 8:20:45.6050,0.08,-0.253,-0.858,-1.08,0.73,-1.9,1.0,3.1,0.52
2022-12-29 8:20:45.6150,0.038,-0.305,-0.992,-0.43,1.12,-0.34,1.26,3.27,0.78
2022-12-29 8:20:45.6240,0.048,-0.347,-1.04,0.01,1.43,0.48,1.55,3.25,1.05
2022-12-29 8:20:45.6350,0.052,-0.38,-1.01,0.09,1.61,0.53,1.85,3.14,1.3
2022-12-29 8:20:45.6440,-0.018,-0.371,-0.933,0.77,1.53,-0.07,2.04,2.94,1.48
2022-12-29 8:20:45.6550,0.046,-0.346,-1.022,1.36,1.02,-0.24,2.04,2.39,1.55
2022-12-29 8:20:45.6640,0.333,-0.306,-1.275,-1.12,0.63,2.59,1.95,1.57,1.45
2022-12-29 8:20:45.6740,0.381,-0.202,-1.275,-2.4,-0.39,3.04,1.81,0.95,1.19
2022-12-29 8:20:45.6840,0.469,-0.034,-1.589,-3.13,-2.03,5.44,1.08,0.19,0.6
2022-12-29 8:20:45.6940,0.159,-0.041,-1.233,-1.61,-2.82,4.5,0.64,0.03,0.48
2022-12-29 8:20:45.7040,-0.009,-0.099,-1.137,1.04,-2.3,1.79,0.25,-0.48,0.49
2022-12-29 8:20:45.7140,-0.063,-0.182,-1.121,1.68,-1.6,1.99,0.01,-0.99,0.44
2022-12-29 8:20:45.7240,0.006,-0.218,-1.026,1.41,-0.95,1.15,-0.09,-1.34,0.29
2022-12-29 8:20:45.7340,0.103,-0.194,-0.918,0.14,-1.03,0.14,-0.16,-1.54,0.09
2022-12-29 8:20:45.7440,0.122,-0.181,-0.838,-0.38,-1.23,-0.91,-0.27,-1.51,-0.05
2022-12-29 8:20:45.7540,0.137,-0.201,-0.871,-0.65,-1.12,-1.01,-0.42,-1.44,-0.13
2022-12-29 8:20:45.7640,0.147,-0.225,-0.941,-0.91,-0.8,-0.37,-0.57,-1.37,-0.18
2022-12-29 8:20:45.7740,0.142,-0.237,-1.01,-1.0,-0.58,0.29,-0.67,-1.3,-0.2
2022-12-29 8:20:45.7840,0.105,-0.247,-1.043,-0.98,-0.47,0.76,-0.69,-1.21,-0.21
2022-12-29 8:20:45.7940,-0.026,-0.297,-1.033,-0.09,-0.03,0.77,-0.67,-1.12,-0.13
2022-12-29 8:20:45.8040,-0.138,-0.346,-0.927,1.15,0.53,0.27,-0.62,-1.13,-0.03
2022-12-29 8:20:45.8140,-0.077,-0.364,-0.78,1.19,0.95,-1.49,-0.53,-0.89,0.0
2022-12-29 8:20:45.8240,-0.003,-0.33,-0.838,0.04,0.79,-1.58,-0.57,-0.61,0.01
2022-12-29 8:20:45.8340,-0.049,-0.311,-0.891,0.2,0.58,-0.87,-0.66,-0.41,0.06
2022-12-29 8:20:45.8440,-0.051,-0.296,-0.93,0.42,0.53,-0.54,-0.76,-0.26,0.11
2022-12-29 8:20:45.8540,-0.04,-0.273,-0.962,0.25,0.39,-0.16,-0.85,-0.14,0.14
2022-12-29 8:20:45.8640,-0.053,-0.248,-0.958,0.29,0.25,-0.1,-0.91,-0.06,0.16
2022-12-29 8:20:45.8740,-0.065,-0.214,-0.935,0.45,0.03,-0.31,-0.97,0.01,0.17
2022-12-29 8:20:45.8840,-0.066,-0.179,-0.94,0.46,-0.21,-0.43,-1.09,0.01,0.12
2022-12-29 8:20:45.8940,-0.09,-0.149,-0.939,0.6,-0.41,-0.35,-1.22,0.08,0.02
2022-12-29 8:20:45.9030,-0.098,-0.105,-0.916,0.84,-0.65,-0.58,-1.29,0.2,-0.15
2022-12-29 8:20:45.9130,-0.073,-0.063,-0.914,0.7,-0.97,-0.72,-1.28,0.33,-0.38
2022-12-29 8:20:45.9230,-0.063,-0.043,-0.923,0.55,-1.16,-0.66,-1.2,0.39,-0.56
2022-12-29 8:20:45.9330,-0.059,-0.056,-0.922,0.59,-1.04,-0.63,-1.05,0.43,-0.63
2022-12-29 8:20:45.9430,-0.055,-0.083,-0.931,0.58,-0.71,-0.65,-0.82,0.43,-0.61
2022-12-29 8:20:45.9530,-0.051,-0.116,-0.972,0.61,-0.37,-0.37,-0.55,0.38,-0.57
2022-12-29 8:20:45.9630,-0.025,-0.162,-1.037,0.48,0.08,0.21,-0.25,0.33,-0.47
2022-12-29 8:20:45.9730,0.009,-0.191,-1.094,0.19,0.48,0.83,0.06,0.2,-0.38
2022-12-29 8:20:45.9830,0.038,-0.187,-1.106,-0.14,0.52,1.15,0.4,-0.06,-0.34
2022-12-29 8:20:45.9930,0.031,-0.183,-1.082,-0.26,0.36,1.02,0.78,-0.4,-0.3
2022-12-29 8:20:46.0030,-0.003,-0.185,-1.031,-0.04,0.3,0.61,1.2,-0.67,-0.27
2022-12-29 8:20:46.0130,-0.036,-0.176,-1.004,0.24,0.09,0.24,1.57,-0.89,-0.25
2022-12-29 8:20:46.0230,-0.031,-0.161,-0.98,0.29,-0.19,0.09,1.84,-1.05,-0.29
2022-12-29 8:20:46.0330,-0.006,-0.15,-0.943,-0.06,-0.55,-0.22,2.0,-1.15,-0.39
2022-12-29 8:20:46.0430,-0.012,-0.161,-0.929,-0.26,-0.7,-0.44,2.07,-1.16,-0.5
2022-12-29 8:20:46.0530,-0.044,-0.178,-0.941,-0.09,-0.75,-0.33,2.07,-1.13,-0.57
2022-12-29 8:20:46.0630,-0.086,-0.193,-0.97,0.21,-0.77,-0.05,2.03,-1.1,-0.56
2022-12-29 8:20:46.0730,-0.109,-0.194,-0.994,0.46,-0.89,0.3,1.97,-1.0,-0.52
2022-12-29 8:20:46.0830,-0.125,-0.191,-0.955,0.52,-1.17,0.28,1.86,-0.65,-0.44
2022-12-29 8:20:46.0930,-0.155,-0.264,-0.974,0.78,-0.85,0.01,1.65,-0.49,-0.3
2022-12-29 8:20:46.1030,-0.147,-0.303,-1.017,0.83,-0.41,0.76,1.39,-0.53,-0.2
2022-12-29 8:20:46.1130,-0.116,-0.321,-0.954,0.51,-0.31,0.43,1.11,-0.46,-0.12
2022-12-29 8:20:46.1220,-0.099,-0.335,-0.916,0.25,-0.24,-0.08,0.83,-0.28,-0.06
2022-12-29 8:20:46.1330,-0.087,-0.348,-0.904,0.13,-0.17,-0.23,0.58,-0.07,-0.0
2022-12-29 8:20:46.1420,-0.073,-0.355,-0.914,-0.01,-0.1,-0.21,0.34,0.06,0.05
2022-12-29 8:20:46.1530,-0.058,-0.35,-0.941,-0.15,-0.12,0.03,0.13,0.07,0.09
2022-12-29 8:20:46.1620,-0.054,-0.338,-0.963,-0.25,-0.22,0.27,-0.02,-0.02,0.1
2022-12-29 8:20:46.1720,-0.059,-0.332,-0.965,-0.23,-0.31,0.37,-0.13,-0.12,0.06
2022-12-29 8:20:46.1820,-0.069,-0.342,-0.961,-0.16,-0.27,0.31,-0.16,-0.23,0.02
2022-12-29 8:20:46.1920,-0.079,-0.368,-0.964,-0.09,-0.03,0.35,-0.16,-0.45,-0.04
2022-12-29 8:20:46.2020,-0.084,-0.393,-0.925,-0.07,0.24,0.17,-0.13,-0.67,-0.14
2022-12-29 8:20:46.2120,-0.079,-0.405,-0.856,-0.15,0.42,-0.47,-0.07,-0.71,-0.24
2022-12-29 8:20:46.2220,-0.08,-0.415,-0.794,-0.21,0.49,-1.1,0.03,-0.59,-0.32
2022-12-29 8:20:46.2320,-0.076,-0.427,-0.761,-0.25,0.62,-1.56,0.17,-0.5,-0.4
2022-12-29 8:20:46.2420,-0.07,-0.423,-0.762,-0.37,0.61,-1.66,0.33,-0.48,-0.48
2022-12-29 8:20:46.2520,-0.091,-0.406,-0.8,-0.27,0.43,-1.37,0.52,-0.49,-0.56
2022-12-29 8:20:46.2620,-0.118,-0.388,-0.831,-0.02,0.19,-0.97,0.73,-0.49,-0.63
2022-12-29 8:20:46.2720,-0.103,-0.362,-0.832,0.02,-0.12,-0.78,0.93,-0.48,-0.75
2022-12-29 8:20:46.2820,-0.074,-0.334,-0.782,-0.33,-0.5,-1.04,1.08,-0.48,-0.88
2022-12-29 8:20:46.2920,-0.124,-0.273,-0.76,-0.23,-0.99,-1.55,1.16,-0.62,-1.0
2022-12-29 8:20:46.3020,-0.217,-0.187,-0.769,0.74,-2.05,-1.03,1.12,-0.78,-1.08
2022-12-29 8:20:46.3120,-0.195,-0.181,-0.62,0.93,-2.45,-2.3,0.98,-0.31,-1.07
2022-12-29 8:20:46.3220,-0.146,-0.164,-0.648,0.53,-2.57,-2.68,0.72,0.32,-1.02
2022-12-29 8:20:46.3320,-0.066,-0.135,-0.764,0.03,-2.93,-1.75,0.43,0.84,-0.96
2022-12-29 8:20:46.3420,0.055,-0.147,-0.91,-0.96,-3.03,-0.32,0.11,1.06,-0.89
2022-12-29 8:20:46.3520,0.12,-0.215,-1.002,-1.76,-2.56,0.77,-0.19,1.22,-0.71
2022-12-29 8:20:46.3620,0.132,-0.344,-1.084,-1.87,-1.53,1.52,-0.39,1.28,-0.52
2022-12-29 8:20:46.3720,0.092,-0.513,-1.14,-1.57,0.16,2.26,-0.41,1.15,-0.59
2022-12-29 8:20:46.3820,0.043,-0.64,-1.045,-0.95,1.49,1.99,0.06,0.98,-0.74
2022-12-29 8:20:46.3920,0.018,-0.738,-1.04,-0.32,2.71,1.06,0.64,0.84,-0.84
2022-12-29 8:20:46.4010,0.057,-0.719,-1.137,-0.7,2.71,2.22,0.95,0.96,-0.91
2022-12-29 8:20:46.4120,-0.013,-0.72,-1.098,-0.06,2.57,2.21,1.2,1.03,-0.83
2022-12-29 8:20:46.4210,-0.0,-0.661,-1.09,0.24,2.14,2.06,1.34,0.98,-0.74
2022-12-29 8:20:46.4310,0.015,-0.574,-1.041,0.14,1.21,1.86,1.38,0.88,-0.63
2022-12-29 8:20:46.4410,0.022,-0.494,-0.989,0.15,0.26,1.32,1.27,0.79,-0.51
2022-12-29 8:20:46.4510,0.025,-0.447,-0.963,0.18,-0.44,1.04,1.07,0.68,-0.4
2022-12-29 8:20:46.4610,0.02,-0.432,-0.967,0.27,-0.77,1.02,0.8,0.46,-0.24
2022-12-29 8:20:46.4710,0.035,-0.431,-0.958,0.26,-0.82,1.11,0.54,0.13,-0.05
2022-12-29 8:20:46.4810,0.079,-0.426,-0.907,-0.12,-0.92,0.72,0.3,-0.18,0.12
2022-12-29 8:20:46.4910,0.111,-0.435,-0.865,-0.54,-0.9,0.25,0.11,-0.48,0.22
2022-12-29 8:20:46.5010,0.123,-0.466,-0.829,-0.81,-0.67,-0.11,-0.05,-0.69,0.28
2022-12-29 8:20:46.5110,0.107,-0.493,-0.811,-0.83,-0.34,-0.39,-0.22,-0.78,0.31
2022-12-29 8:20:46.5210,0.08,-0.504,-0.809,-0.67,-0.14,-0.47,-0.39,-0.81,0.34
2022-12-29 8:20:46.5310,0.052,-0.495,-0.819,-0.47,-0.14,-0.45,-0.56,-0.79,0.34
2022-12-29 8:20:46.5410,0.024,-0.49,-0.83,-0.29,-0.15,-0.33,-0.71,-0.74,0.29
2022-12-29 8:20:46.5510,0.001,-0.484,-0.814,-0.1,-0.14,-0.44,-0.79,-0.69,0.21
2022-12-29 8:20:46.5610,-0.011,-0.484,-0.803,0.01,-0.09,-0.65,-0.8,-0.57,0.11
2022-12-29 8:20:46.5710,-0.006,-0.489,-0.819,-0.02,0.0,-0.64,-0.76,-0.42,-0.01
2022-12-29 8:20:46.5810,0.006,-0.494,-0.855,-0.15,0.14,-0.37,-0.68,-0.34,-0.11
2022-12-29 8:20:46.5910,0.015,-0.487,-0.884,-0.28,0.15,-0.05,-0.57,-0.35,-0.19
2022-12-29 8:20:46.6010,0.024,-0.469,-0.893,-0.38,0.07,0.09,-0.44,-0.42,-0.27
2022-12-29 8:20:46.6110,0.025,-0.442,-0.884,-0.48,-0.17,0.04,-0.33,-0.46,-0.32
2022-12-29 8:20:46.6210,-0.004,-0.438,-0.866,-0.34,-0.28,-0.12,-0.24,-0.49,-0.3
2022-12-29 8:20:46.6300,-0.048,-0.44,-0.849,0.03,-0.23,-0.32,-0.19,-0.56,-0.21
2022-12-29 8:20:46.6400,-0.086,-0.437,-0.853,0.41,-0.23,-0.38,-0.21,-0.62,-0.11
2022-12-29 8:20:46.6510,-0.095,-0.435,-0.874,0.58,-0.23,-0.22,-0.33,-0.69,-0.03
2022-12-29 8:20:46.6600,-0.07,-0.436,-0.891,0.36,-0.19,-0.04,-0.54,-0.69,0.02
2022-12-29 8:20:46.6700,-0.052,-0.44,-0.89,0.06,-0.1,-0.01,-0.78,-0.62,0.08
2022-12-29 8:20:46.6800,-0.043,-0.436,-0.876,-0.08,-0.01,-0.16,-0.95,-0.55,0.13
2022-12-29 8:20:46.6900,-0.034,-0.422,-0.878,-0.24,-0.04,-0.27,-1.05,-0.48,0.15
2022-12-29 8:20:46.7000,-0.034,-0.413,-0.889,-0.29,-0.04,-0.19,-1.08,-0.42,0.11
2022-12-29 8:20:46.7100,-0.023,-0.404,-0.884,-0.41,-0.06,-0.23,-1.02,-0.3,-0.02
2022-12-29 8:20:46.7200,-0.038,-0.399,-0.89,-0.39,-0.03,-0.27,-0.89,-0.13,-0.13
2022-12-29 8:20:46.7300,-0.063,-0.397,-0.91,-0.14,0.0,-0.13,-0.72,-0.02,-0.19
2022-12-29 8:20:46.7400,-0.079,-0.401,-0.918,0.07,0.07,-0.03,-0.52,0.05,-0.2
2022-12-29 8:20:46.7500,-0.085,-0.409,-0.919,0.18,0.17,0.0,-0.3,0.06,-0.18
2022-12-29 8:20:46.7600,-0.083,-0.414,-0.909,0.18,0.25,-0.07,-0.06,-0.0,-0.14
2022-12-29 8:20:46.7700,-0.084,-0.413,-0.903,0.17,0.25,-0.17,0.15,-0.03,-0.11
2022-12-29 8:20:46.7800,-0.091,-0.411,-0.919,0.23,0.21,-0.09,0.28,-0.01,-0.07
2022-12-29 8:20:46.7900,-0.095,-0.41,-0.953,0.29,0.17,0.21,0.29,0.01,-0.05
2022-12-29 8:20:46.8000,-0.09,-0.414,-0.963,0.28,0.16,0.46,0.23,-0.02,-0.06
2022-12-29 8:20:46.8100,-0.075,-0.421,-0.95,0.16,0.22,0.38,0.14,-0.03,-0.07
2022-12-29 8:20:46.8200,-0.063,-0.415,-0.937,0.02,0.21,0.25,0.04,-0.05,-0.09
2022-12-29 8:20:46.8300,-0.064,-0.4,-0.909,-0.01,0.09,0.07,-0.03,-0.07,-0.1
2022-12-29 8:20:46.8400,-0.066,-0.386,-0.872,0.01,-0.07,-0.32,-0.06,-0.04,-0.12
2022-12-29 8:20:46.8500,-0.067,-0.378,-0.873,0.02,-0.16,-0.48,-0.07,0.01,-0.13
2022-12-29 8:20:46.8600,-0.069,-0.374,-0.887,0.06,-0.2,-0.34,-0.07,0.06,-0.14
2022-12-29 8:20:46.8690,-0.068,-0.377,-0.888,0.06,-0.2,-0.28,-0.05,0.09,-0.13
2022-12-29 8:20:46.8800,-0.062,-0.379,-0.888,0.05,-0.16,-0.29,-0.03,0.09,-0.12
2022-12-29 8:20:46.8900,-0.064,-0.385,-0.891,0.02,-0.14,-0.28,-0.0,0.07,-0.09
2022-12-29 8:20:46.9000,-0.061,-0.386,-0.896,0.06,-0.07,-0.24,0.01,0.05,-0.05
2022-12-29 8:20:46.9100,-0.048,-0.38,-0.906,-0.06,-0.13,-0.16,0.0,0.04,-0.02
2022-12-29 8:20:46.9200,-0.042,-0.382,-0.912,-0.14,-0.15,-0.06,-0.01,0.05,-0.01
2022-12-29 8:20:46.9300,-0.042,-0.391,-0.914,-0.16,-0.07,-0.05,-0.01,0.04,-0.01
2022-12-29 8:20:46.9390,-0.041,-0.396,-0.919,-0.15,0.0,0.0,-0.01,0.04,-0.02
2022-12-29 8:20:46.9490,-0.041,-0.392,-0.921,-0.15,0.0,0.02,-0.01,0.04,-0.03
2022-12-29 8:20:46.9590,-0.041,-0.384,-0.925,-0.16,-0.08,0.06,-0.02,0.04,-0.04
2022-12-29 8:20:46.9700,-0.048,-0.385,-0.928,-0.1,-0.11,0.09,-0.01,0.02,-0.05
2022-12-29 8:20:46.9790,-0.05,-0.387,-0.932,-0.05,-0.07,0.13,-0.01,-0.01,-0.06
2022-12-29 8:20:46.9890,-0.049,-0.39,-0.925,-0.06,-0.06,0.11,-0.0,-0.01,-0.06
2022-12-29 8:20:46.9990,-0.048,-0.394,-0.914,-0.07,-0.02,-0.01,0.03,0.0,-0.04
2022-12-29 8:20:47.0090,-0.049,-0.396,-0.912,-0.06,0.01,-0.06,0.05,0.01,-0.02
2022-12-29 8:20:47.0190,-0.054,-0.396,-0.91,-0.03,0.01,-0.07,0.08,0.01,-0.0
2022-12-29 8:20:47.0290,-0.059,-0.396,-0.906,0.03,0.0,-0.1,0.11,0.01,0.02
2022-12-29 8:20:47.0390,-0.059,-0.394,-0.909,0.06,-0.02,-0.1,0.12,0.03,0.03
2022-12-29 8:20:47.0490,-0.05,-0.388,-0.924,0.0,-0.07,0.01,0.11,0.01,0.03
2022-12-29 8:20:47.0590,-0.049,-0.386,-0.93,-0.07,-0.13,0.14,0.09,-0.03,0.04
2022-12-29 8:20:47.0690,-0.05,-0.389,-0.924,-0.03,-0.11,0.11,0.07,-0.04,0.03
2022-12-29 8:20:47.0790,-0.044,-0.387,-0.916,-0.08,-0.11,0.03,0.07,-0.04,0.03
2022-12-29 8:20:47.0890,-0.041,-0.381,-0.91,-0.13,-0.16,-0.04,0.07,-0.03,0.01
2022-12-29 8:20:47.0990,-0.046,-0.378,-0.908,-0.12,-0.22,-0.06,0.08,-0.01,-0.0
2022-12-29 8:20:47.1090,-0.055,-0.383,-0.905,-0.03,-0.21,-0.09,0.09,-0.01,-0.01
2022-12-29 8:20:47.1190,-0.06,-0.39,-0.906,0.03,-0.14,-0.1,0.09,-0.01,-0.01
2022-12-29 8:20:47.1290,-0.065,-0.396,-0.911,0.07,-0.1,-0.05,0.08,-0.01,-0.01
2022-12-29 8:20:47.1390,-0.07,-0.398,-0.911,0.13,-0.05,-0.04,0.06,-0.02,0.0
2022-12-29 8:20:47.1490,-0.069,-0.398,-0.914,0.14,-0.07,-0.01,0.05,-0.04,0.01
2022-12-29 8:20:47.1590,-0.065,-0.4,-0.913,0.1,-0.05,0.0,0.03,-0.04,0.01
2022-12-29 8:20:47.1690,-0.063,-0.4,-0.91,0.08,-0.05,-0.03,0.03,-0.02,0.01
2022-12-29 8:20:47.1790,-0.06,-0.397,-0.904,0.06,-0.06,-0.07,0.04,0.01,0.01
2022-12-29 8:20:47.1890,-0.053,-0.391,-0.901,0.01,-0.11,-0.13,0.06,0.03,-0.0
2022-12-29 8:20:47.1980,-0.049,-0.385,-0.915,-0.06,-0.19,-0.03,0.05,0.03,-0.02
2022-12-29 8:20:47.2090,-0.056,-0.391,-0.908,-0.01,-0.17,0.0,0.03,0.03,-0.02
2022-12-29 8:20:47.2180,-0.053,-0.4,-0.898,0.0,-0.09,-0.13,0.04,0.03,-0.01
2022-12-29 8:20:47.2280,-0.049,-0.408,-0.903,-0.04,-0.01,-0.13,0.03,0.03,-0.01
2022-12-29 8:20:47.2380,-0.05,-0.41,-0.91,-0.05,0.02,-0.03,0.01,0.03,-0.01
2022-12-29 8:20:47.2480,-0.049,-0.411,-0.905,-0.02,0.05,-0.06,-0.01,0.03,-0.0
2022-12-29 8:20:47.2580,-0.039,-0.408,-0.908,-0.12,0.03,-0.07,-0.02,0.03,0.0
2022-12-29 8:20:47.2680,-0.036,-0.407,-0.916,-0.17,0.01,0.01,-0.03,0.01,0.01
2022-12-29 8:20:47.2780,-0.036,-0.404,-0.916,-0.17,0.0,0.04,-0.02,-0.01,0.02
2022-12-29 8:20:47.2880,-0.035,-0.396,-0.914,-0.18,-0.06,0.0,-0.01,-0.03,0.01
2022-12-29 8:20:47.2980,-0.034,-0.387,-0.924,-0.19,-0.15,0.06,-0.02,-0.04,-0.0
2022-12-29 8:20:47.3080,-0.037,-0.383,-0.926,-0.19,-0.21,0.13,-0.03,-0.07,-0.02
2022-12-29 8:20:47.3180,-0.043,-0.387,-0.926,-0.13,-0.19,0.12,-0.03,-0.1,-0.03
2022-12-29 8:20:47.3280,-0.04,-0.393,-0.917,-0.14,-0.14,0.08,-0.04,-0.13,-0.03
2022-12-29 8:20:47.3380,-0.039,-0.401,-0.911,-0.18,-0.06,-0.01,-0.06,-0.15,-0.02
2022-12-29 8:20:47.3480,-0.043,-0.403,-0.905,-0.17,0.0,-0.06,-0.09,-0.15,-0.0
2022-12-29 8:20:47.3580,-0.058,-0.402,-0.899,-0.07,0.0,-0.13,-0.12,-0.14,0.01
2022-12-29 8:20:47.3680,-0.069,-0.404,-0.897,0.06,0.03,-0.18,-0.14,-0.09,0.03
2022-12-29 8:20:47.3780,-0.069,-0.405,-0.9,0.1,0.05,-0.17,-0.13,-0.08,0.05
2022-12-29 8:20:47.3880,-0.068,-0.4,-0.903,0.06,0.04,-0.14,-0.11,-0.08,0.05
2022-12-29 8:20:47.3980,-0.064,-0.391,-0.905,0.04,-0.02,-0.12,-0.09,-0.06,0.05
2022-12-29 8:20:47.4080,-0.064,-0.386,-0.904,0.01,-0.09,-0.11,-0.07,-0.06,0.04
2022-12-29 8:20:47.4180,-0.067,-0.381,-0.902,0.03,-0.12,-0.14,-0.06,-0.05,0.03
2022-12-29 8:20:47.4280,-0.07,-0.378,-0.9,0.06,-0.16,-0.16,-0.05,-0.03,0.03
2022-12-29 8:20:47.4380,-0.072,-0.378,-0.9,0.08,-0.16,-0.17,-0.04,-0.01,0.02
2022-12-29 8:20:47.4480,-0.071,-0.379,-0.897,0.08,-0.16,-0.19,-0.04,0.01,0.02
2022-12-29 8:20:47.4570,-0.074,-0.383,-0.899,0.1,-0.12,-0.2,-0.04,0.03,0.02
2022-12-29 8:20:47.4670,-0.077,-0.385,-0.903,0.13,-0.08,-0.16,-0.05,0.05,0.02
2022-12-29 8:20:47.4770,-0.077,-0.384,-0.908,0.15,-0.08,-0.12,-0.07,0.05,0.03
2022-12-29 8:20:47.4870,-0.074,-0.384,-0.908,0.14,-0.09,-0.09,-0.07,0.06,0.03
2022-12-29 8:20:47.4970,-0.068,-0.385,-0.902,0.08,-0.07,-0.14,-0.07,0.06,0.02
2022-12-29 8:20:47.5070,-0.067,-0.384,-0.899,0.06,-0.06,-0.2,-0.06,0.09,0.02
2022-12-29 8:20:47.5170,-0.067,-0.382,-0.903,0.06,-0.07,-0.18,-0.05,0.09,0.02
2022-12-29 8:20:47.5270,-0.065,-0.381,-0.91,0.06,-0.09,-0.13,-0.05,0.09,0.02
2022-12-29 8:20:47.5370,-0.062,-0.378,-0.918,0.04,-0.1,-0.05,-0.07,0.07,0.03
2022-12-29 8:20:47.5470,-0.056,-0.377,-0.927,0.0,-0.11,0.03,-0.07,0.06,0.03
2022-12-29 8:20:47.5570,-0.051,-0.38,-0.94,-0.05,-0.1,0.15,-0.07,0.03,0.03
2022-12-29 8:20:47.5670,-0.047,-0.38,-0.941,-0.11,-0.07,0.21,-0.07,-0.01,0.04
2022-12-29 8:20:47.5770,-0.049,-0.38,-0.938,-0.09,-0.07,0.17,-0.06,-0.04,0.05
2022-12-29 8:20:47.5870,-0.053,-0.388,-0.936,-0.12,-0.02,0.16,-0.04,-0.09,0.06
2022-12-29 8:20:47.5970,-0.063,-0.388,-0.935,-0.02,0.04,0.12,-0.03,-0.17,0.09
2022-12-29 8:20:47.6070,-0.065,-0.379,-0.936,0.02,-0.03,0.14,-0.05,-0.23,0.13
2022-12-29 8:20:47.6170,-0.054,-0.37,-0.947,-0.09,-0.1,0.19,-0.06,-0.32,0.14
2022-12-29 8:20:47.6270,-0.04,-0.37,-0.926,-0.25,-0.17,0.18,-0.05,-0.31,0.13
2022-12-29 8:20:47.6370,-0.036,-0.383,-0.898,-0.38,-0.06,-0.16,-0.01,-0.24,0.1
2022-12-29 8:20:47.6470,-0.047,-0.389,-0.898,-0.33,0.04,-0.26,0.06,-0.13,0.08
2022-12-29 8:20:47.6570,-0.065,-0.393,-0.923,-0.17,0.06,-0.09,0.14,-0.05,0.1
2022-12-29 8:20:47.6670,-0.075,-0.395,-0.955,-0.04,0.09,0.24,0.22,-0.06,0.13
2022-12-29 8:20:47.6770,-0.076,-0.386,-0.972,-0.02,0.02,0.49,0.25,-0.12,0.13
2022-12-29 8:20:47.6870,-0.077,-0.374,-0.972,-0.04,-0.12,0.54,0.23,-0.17,0.13
2022-12-29 8:20:47.6960,-0.084,-0.365,-0.959,-0.01,-0.24,0.47,0.17,-0.2,0.1
2022-12-29 8:20:47.7070,-0.093,-0.366,-0.948,0.05,-0.29,0.33,0.1,-0.24,0.06
2022-12-29 8:20:47.7160,-0.108,-0.372,-0.955,0.16,-0.22,0.37,0.03,-0.3,0.03
2022-12-29 8:20:47.7270,-0.114,-0.366,-0.938,0.22,-0.24,0.3,-0.0,-0.35,0.01
2022-12-29 8:20:47.7360,-0.133,-0.362,-0.901,0.32,-0.31,0.02,0.03,-0.34,0.02
2022-12-29 8:20:47.7460,-0.141,-0.359,-0.86,0.45,-0.33,-0.4,0.1,-0.3,0.02
2022-12-29 8:20:47.7560,-0.138,-0.361,-0.832,0.41,-0.36,-0.72,0.18,-0.19,0.0
2022-12-29 8:20:47.7660,-0.136,-0.363,-0.829,0.4,-0.34,-0.86,0.22,-0.05,-0.03
2022-12-29 8:20:47.7760,-0.127,-0.36,-0.848,0.32,-0.38,-0.7,0.21,0.08,-0.08
2022-12-29 8:20:47.7860,-0.116,-0.36,-0.869,0.25,-0.41,-0.5,0.2,0.15,-0.12
2022-12-29 8:20:47.7960,-0.104,-0.37,-0.886,0.15,-0.38,-0.3,0.19,0.18,-0.16
2022-12-29 8:20:47.8060,-0.096,-0.385,-0.895,0.08,-0.25,-0.18,0.18,0.18,-0.18
2022-12-29 8:20:47.8160,-0.087,-0.398,-0.897,0.02,-0.14,-0.12,0.17,0.18,-0.19
2022-12-29 8:20:47.8260,-0.075,-0.414,-0.896,-0.05,0.0,-0.14,0.15,0.19,-0.18
2022-12-29 8:20:47.8360,-0.061,-0.427,-0.901,-0.17,0.12,-0.11,0.12,0.18,-0.18
2022-12-29 8:20:47.8460,-0.051,-0.437,-0.907,-0.27,0.22,-0.04,0.08,0.17,-0.15
2022-12-29 8:20:47.8560,-0.043,-0.451,-0.922,-0.32,0.34,0.05,0.04,0.16,-0.08
2022-12-29 8:20:47.8660,-0.031,-0.45,-0.95,-0.43,0.42,0.29,0.0,0.08,-0.02
2022-12-29 8:20:47.8760,-0.031,-0.432,-0.954,-0.47,0.28,0.5,-0.02,-0.02,0.02
2022-12-29 8:20:47.8860,-0.04,-0.417,-0.919,-0.44,0.11,0.21,-0.03,-0.08,0.05
2022-12-29 8:20:47.8960,-0.051,-0.413,-0.905,-0.31,0.03,-0.01,-0.03,-0.08,0.07
2022-12-29 8:20:47.9060,-0.067,-0.414,-0.901,-0.21,0.03,-0.08,-0.04,-0.09,0.07
2022-12-29 8:20:47.9160,-0.078,-0.411,-0.9,-0.06,0.05,-0.1,-0.05,-0.1,0.08
2022-12-29 8:20:47.9260,-0.078,-0.4,-0.904,-0.05,-0.04,-0.07,-0.06,-0.11,0.07
2022-12-29 8:20:47.9360,-0.083,-0.391,-0.905,-0.04,-0.14,-0.04,-0.07,-0.11,0.05
2022-12-29 8:20:47.9460,-0.091,-0.388,-0.903,0.03,-0.18,-0.06,-0.07,-0.12,0.04
2022-12-29 8:20:47.9560,-0.095,-0.387,-0.903,0.08,-0.19,-0.09,-0.07,-0.1,0.03
2022-12-29 8:20:47.9660,-0.094,-0.39,-0.911,0.09,-0.17,-0.03,-0.06,-0.07,0.03
2022-12-29 8:20:47.9750,-0.088,-0.397,-0.916,0.03,-0.11,0.05,-0.03,-0.07,0.02
2022-12-29 8:20:47.9860,-0.09,-0.4,-0.908,0.01,-0.05,0.01,0.01,-0.04,0.02
2022-12-29 8:20:47.9950,-0.093,-0.398,-0.9,0.05,-0.07,-0.08,0.04,-0.0,0.02
2022-12-29 8:20:48.0050,-0.094,-0.397,-0.891,0.06,-0.09,-0.16,0.06,0.04,0.02
2022-12-29 8:20:48.0150,-0.097,-0.4,-0.883,0.09,-0.08,-0.24,0.06,0.07,0.03
2022-12-29 8:20:48.0250,-0.099,-0.4,-0.876,0.13,-0.07,-0.31,0.05,0.11,0.03
2022-12-29 8:20:48.0350,-0.096,-0.402,-0.872,0.13,-0.06,-0.36,0.02,0.15,0.03
2022-12-29 8:20:48.0450,-0.095,-0.398,-0.873,0.11,-0.06,-0.38,-0.0,0.16,0.03
2022-12-29 8:20:48.0550,-0.089,-0.394,-0.882,0.11,-0.12,-0.32,-0.04,0.15,0.04
2022-12-29 8:20:48.0650,-0.086,-0.392,-0.895,0.04,-0.13,-0.2,-0.07,0.13,0.03
2022-12-29 8:20:48.0750,-0.09,-0.39,-0.904,0.08,-0.15,-0.1,-0.08,0.12,0.02
2022-12-29 8:20:48.0850,-0.096,-0.391,-0.918,0.16,-0.14,0.0,-0.05,0.11,0.03
2022-12-29 8:20:48.0950,-0.085,-0.388,-0.938,0.12,-0.15,0.19,-0.01,0.06,0.02
2022-12-29 8:20:48.1050,-0.08,-0.388,-0.946,0.02,-0.17,0.34,0.02,0.01,0.0
2022-12-29 8:20:48.1150,-0.081,-0.387,-0.938,0.03,-0.18,0.29,0.04,-0.01,-0.0
2022-12-29 8:20:48.1250,-0.082,-0.396,-0.929,0.02,-0.14,0.21,0.06,-0.01,-0.01
2022-12-29 8:20:48.1350,-0.086,-0.405,-0.919,0.06,-0.03,0.11,0.07,0.0,-0.01
2022-12-29 8:20:48.1450,-0.089,-0.401,-0.911,0.09,-0.03,0.03,0.07,0.02,-0.02
2022-12-29 8:20:48.1550,-0.088,-0.392,-0.909,0.11,-0.12,-0.01,0.05,0.04,-0.03
2022-12-29 8:20:48.1650,-0.084,-0.39,-0.908,0.07,-0.18,-0.03,0.05,0.04,-0.03
2022-12-29 8:20:48.1750,-0.081,-0.392,-0.905,0.05,-0.16,-0.04,0.04,0.02,-0.03
2022-12-29 8:20:48.1850,-0.083,-0.398,-0.901,0.04,-0.13,-0.08,0.04,0.02,-0.03
2022-12-29 8:20:48.1950,-0.084,-0.401,-0.898,0.07,-0.08,-0.11,0.04,0.04,-0.02
2022-12-29 8:20:48.2050,-0.083,-0.4,-0.899,0.08,-0.08,-0.11,0.05,0.06,-0.02
2022-12-29 8:20:48.2150,-0.078,-0.401,-0.897,0.04,-0.09,-0.12,0.07,0.07,-0.01
2022-12-29 8:20:48.2250,-0.075,-0.403,-0.894,0.02,-0.08,-0.15,0.1,0.1,-0.02
2022-12-29 8:20:48.2340,-0.073,-0.405,-0.894,0.0,-0.07,-0.16,0.11,0.12,-0.02
2022-12-29 8:20:48.2450,-0.071,-0.407,-0.899,-0.01,-0.06,-0.11,0.11,0.12,-0.02
2022-12-29 8:20:48.2550,-0.069,-0.408,-0.899,-0.02,-0.05,-0.09,0.08,0.13,-0.02
2022-12-29 8:20:48.2650,-0.067,-0.408,-0.896,-0.03,-0.05,-0.11,0.05,0.13,-0.02
2022-12-29 8:20:48.2740,-0.065,-0.407,-0.896,-0.03,-0.06,-0.12,0.03,0.13,-0.02
2022-12-29 8:20:48.2840,-0.064,-0.409,-0.896,-0.04,-0.06,-0.12,0.02,0.12,-0.02
2022-12-29 8:20:48.2940,-0.061,-0.41,-0.902,-0.04,-0.04,-0.09,0.01,0.11,-0.01
2022-12-29 8:20:48.3040,-0.058,-0.409,-0.907,-0.07,-0.04,-0.04,-0.0,0.1,-0.01
2022-12-29 8:20:48.3140,-0.059,-0.406,-0.909,-0.07,-0.06,0.0,-0.01,0.09,-0.02
2022-12-29 8:20:48.3240,-0.061,-0.404,-0.912,-0.05,-0.09,0.01,-0.03,0.07,-0.01
2022-12-29 8:20:48.3340,-0.066,-0.405,-0.919,-0.02,-0.09,0.05,-0.03,0.03,0.0
2022-12-29 8:20:48.3440,-0.061,-0.407,-0.916,0.04,-0.05,0.14,-0.02,0.02,0.0
2022-12-29 8:20:48.3540,-0.048,-0.408,-0.899,-0.15,-0.06,-0.08,-0.0,0.04,0.0
2022-12-29 8:20:48.3640,-0.06,-0.411,-0.911,-0.08,-0.01,-0.04,0.03,0.04,0.02
2022-12-29 8:20:48.3740,-0.062,-0.404,-0.918,0.01,-0.08,0.08,0.05,0.04,0.03
2022-12-29 8:20:48.3840,-0.06,-0.405,-0.916,-0.04,-0.08,0.08,0.05,0.02,0.03
2022-12-29 8:20:48.3940,-0.06,-0.402,-0.917,-0.01,-0.11,0.07,0.04,0.01,0.02
2022-12-29 8:20:48.4040,-0.06,-0.405,-0.921,-0.05,-0.1,0.09,0.02,-0.01,0.01
2022-12-29 8:20:48.4140,-0.065,-0.405,-0.92,0.01,-0.09,0.14,-0.0,-0.03,0.0
2022-12-29 8:20:48.4240,-0.062,-0.404,-0.907,0.0,-0.1,0.02,-0.01,-0.04,-0.0
2022-12-29 8:20:48.4340,-0.062,-0.405,-0.9,-0.03,-0.09,-0.07,-0.02,-0.05,-0.01
2022-12-29 8:20:48.4440,-0.067,-0.406,-0.895,0.01,-0.07,-0.12,-0.02,-0.03,-0.01
2022-12-29 8:20:48.4540,-0.07,-0.404,-0.893,0.05,-0.09,-0.16,-0.01,-0.0,-0.0
2022-12-29 8:20:48.4640,-0.067,-0.404,-0.895,0.05,-0.09,-0.14,0.01,0.01,0.0
2022-12-29 8:20:48.4740,-0.067,-0.402,-0.893,0.03,-0.11,-0.15,0.05,0.04,0.01
2022-12-29 8:20:48.4840,-0.066,-0.4,-0.895,0.03,-0.13,-0.15,0.08,0.06,0.01
2022-12-29 8:20:48.4940,-0.065,-0.401,-0.897,0.02,-0.14,-0.11,0.1,0.07,0.0
2022-12-29 8:20:48.5040,-0.065,-0.403,-0.9,0.03,-0.13,-0.1,0.11,0.07,-0.0
2022-12-29 8:20:48.5130,-0.066,-0.406,-0.901,0.04,-0.12,-0.07,0.08,0.07,-0.01
2022-12-29 8:20:48.5230,-0.065,-0.409,-0.904,0.06,-0.09,-0.05,0.06,0.08,-0.01
2022-12-29 8:20:48.5330,-0.056,-0.409,-0.909,0.0,-0.07,0.0,0.03,0.06,-0.02
2022-12-29 8:20:48.5430,-0.057,-0.408,-0.906,-0.04,-0.09,0.0,0.01,0.05,-0.03
2022-12-29 8:20:48.5530,-0.058,-0.406,-0.904,-0.01,-0.1,-0.04,0.0,0.05,-0.03
2022-12-29 8:20:48.5630,-0.056,-0.409,-0.907,-0.02,-0.1,-0.01,0.0,0.03,-0.04
2022-12-29 8:20:48.5730,-0.056,-0.411,-0.906,-0.02,-0.07,0.0,-0.0,0.02,-0.03
2022-12-29 8:20:48.5830,-0.057,-0.413,-0.907,-0.01,-0.05,-0.02,-0.01,0.03,-0.03
2022-12-29 8:20:48.5930,-0.058,-0.417,-0.911,0.0,-0.02,0.02,-0.01,0.03,-0.02
2022-12-29 8:20:48.6030,-0.056,-0.417,-0.914,0.0,0.01,0.06,0.01,0.01,-0.01
2022-12-29 8:20:48.6130,-0.057,-0.413,-0.909,-0.01,-0.03,0.03,0.02,-0.0,-0.0
2022-12-29 8:20:48.6240,-0.058,-0.413,-0.907,0.01,-0.05,0.0,0.03,-0.01,0.0
2022-12-29 8:20:48.6330,-0.059,-0.412,-0.905,0.01,-0.05,0.0,0.02,-0.02,0.0
2022-12-29 8:20:48.6430,-0.058,-0.414,-0.897,0.01,-0.05,-0.07,0.01,-0.0,0.0
2022-12-29 8:20:48.6530,-0.057,-0.415,-0.895,0.01,-0.03,-0.13,0.0,0.02,0.01
2022-12-29 8:20:48.6630,-0.051,-0.416,-0.896,-0.04,-0.02,-0.11,0.02,0.02,0.01
2022-12-29 8:20:48.6730,-0.046,-0.416,-0.897,-0.09,-0.01,-0.11,0.03,0.01,0.01
2022-12-29 8:20:48.6830,-0.043,-0.413,-0.897,-0.12,-0.04,-0.1,0.04,0.01,0.01
2022-12-29 8:20:48.6930,-0.042,-0.41,-0.899,-0.14,-0.07,-0.09,0.03,0.01,0.0
2022-12-29 8:20:48.7030,-0.044,-0.407,-0.902,-0.13,-0.11,-0.06,-0.0,0.0,-0.01
2022-12-29 8:20:48.7130,-0.049,-0.409,-0.904,-0.1,-0.1,-0.04,-0.02,-0.03,-0.01
2022-12-29 8:20:48.7230,-0.054,-0.41,-0.904,-0.05,-0.07,-0.03,-0.06,-0.05,-0.0
2022-12-29 8:20:48.7330,-0.059,-0.406,-0.906,-0.02,-0.09,-0.04,-0.1,-0.09,-0.0
2022-12-29 8:20:48.7430,-0.068,-0.401,-0.915,0.05,-0.12,0.03,-0.14,-0.18,-0.01
2022-12-29 8:20:48.7520,-0.07,-0.401,-0.909,0.09,-0.14,0.05,-0.2,-0.2,-0.01
2022-12-29 8:20:48.7630,-0.067,-0.408,-0.896,0.06,-0.07,-0.1,-0.23,-0.16,-0.01
2022-12-29 8:20:48.7720,-0.067,-0.417,-0.893,0.04,0.05,-0.18,-0.21,-0.1,-0.01
2022-12-29 8:20:48.7820,-0.061,-0.415,-0.896,0.01,0.07,-0.16,-0.13,-0.05,-0.0
2022-12-29 8:20:48.7920,-0.06,-0.41,-0.901,-0.04,0.04,-0.12,-0.03,-0.02,0.0
2022-12-29 8:20:48.8020,-0.065,-0.402,-0.909,0.0,-0.03,-0.06,0.05,0.0,0.01
2022-12-29 8:20:48.8120,-0.068,-0.397,-0.918,0.04,-0.1,0.04,0.09,0.04,0.02
2022-12-29 8:20:48.8220,-0.067,-0.398,-0.921,0.05,-0.12,0.1,0.11,0.07,0.02
2022-12-29 8:20:48.8320,-0.064,-0.399,-0.918,0.03,-0.12,0.09,0.12,0.1,0.0
2022-12-29 8:20:48.8420,-0.059,-0.397,-0.918,0.01,-0.14,0.07,0.11,0.11,-0.02
2022-12-29 8:20:48.8520,-0.053,-0.399,-0.923,-0.04,-0.15,0.12,0.08,0.09,-0.03
2022-12-29 8:20:48.8620,-0.048,-0.403,-0.923,-0.09,-0.1,0.14,0.04,0.05,-0.03
2022-12-29 8:20:48.8720,-0.047,-0.408,-0.917,-0.12,-0.08,0.1,0.02,0.03,-0.03
2022-12-29 8:20:48.8820,-0.05,-0.416,-0.91,-0.09,0.0,0.02,0.01,0.01,-0.02
2022-12-29 8:20:48.8920,-0.051,-0.412,-0.906,-0.08,0.02,0.0,0.01,-0.02,-0.01
2022-12-29 8:20:48.9020,-0.056,-0.402,-0.893,-0.05,-0.09,-0.11,0.02,-0.04,-0.0
2022-12-29 8:20:48.9120,-0.06,-0.398,-0.884,-0.01,-0.15,-0.23,0.02,-0.04,-0.0
2022-12-29 8:20:48.9220,-0.062,-0.398,-0.886,0.01,-0.16,-0.23,0.01,-0.03,-0.01
2022-12-29 8:20:48.9320,-0.065,-0.401,-0.89,0.04,-0.13,-0.2,0.01,-0.01,-0.0
2022-12-29 8:20:48.9420,-0.066,-0.405,-0.893,0.06,-0.1,-0.17,0.0,0.01,0.0
2022-12-29 8:20:48.9520,-0.065,-0.409,-0.895,0.07,-0.06,-0.15,0.0,0.02,0.01
2022-12-29 8:20:48.9620,-0.063,-0.407,-0.897,0.05,-0.05,-0.14,0.01,0.03,0.02
2022-12-29 8:20:48.9720,-0.059,-0.406,-0.903,0.03,-0.08,-0.09,0.03,0.04,0.02
2022-12-29 8:20:48.9820,-0.054,-0.406,-0.908,-0.03,-0.08,-0.02,0.04,0.04,0.01
2022-12-29 8:20:48.9920,-0.058,-0.404,-0.912,-0.02,-0.09,0.01,0.04,0.05,-0.01
2022-12-29 8:20:49.0020,-0.06,-0.403,-0.917,0.03,-0.11,0.06,0.04,0.04,-0.01
2022-12-29 8:20:49.0110,-0.056,-0.404,-0.919,0.0,-0.12,0.11,0.05,0.03,-0.01
2022-12-29 8:20:49.0210,-0.056,-0.408,-0.915,-0.01,-0.09,0.08,0.05,0.02,-0.01
2022-12-29 8:20:49.0310,-0.059,-0.411,-0.906,0.02,-0.05,0.0,0.06,0.03,-0.0
2022-12-29 8:20:49.0410,-0.06,-0.408,-0.903,0.04,-0.07,-0.05,0.06,0.04,-0.01
2022-12-29 8:20:49.0510,-0.058,-0.404,-0.903,0.02,-0.11,-0.04,0.05,0.04,-0.02
2022-12-29 8:20:49.0610,-0.059,-0.404,-0.899,0.04,-0.13,-0.07,0.04,0.05,-0.02
2022-12-29 8:20:49.0710,-0.055,-0.408,-0.898,0.01,-0.11,-0.1,0.04,0.06,-0.02
2022-12-29 8:20:49.0810,-0.052,-0.413,-0.894,-0.01,-0.07,-0.12,0.05,0.05,-0.01
2022-12-29 8:20:49.0910,-0.051,-0.412,-0.895,-0.02,-0.05,-0.13,0.06,0.05,-0.01
2022-12-29 8:20:49.1010,-0.05,-0.413,-0.898,-0.03,-0.06,-0.11,0.06,0.04,-0.0
2022-12-29 8:20:49.1110,-0.05,-0.416,-0.903,-0.02,-0.04,-0.06,0.05,0.04,-0.0
2022-12-29 8:20:49.1210,-0.047,-0.415,-0.91,-0.04,-0.04,0.0,0.03,0.04,-0.01
2022-12-29 8:20:49.1310,-0.047,-0.416,-0.911,-0.06,-0.04,0.05,0.02,0.03,-0.01
2022-12-29 8:20:49.1410,-0.05,-0.419,-0.906,-0.03,-0.01,0.01,0.01,0.01,-0.01
2022-12-29 8:20:49.1510,-0.051,-0.418,-0.901,-0.01,-0.02,-0.05,0.02,0.0,-0.02
2022-12-29 8:20:49.1610,-0.047,-0.415,-0.906,-0.03,-0.04,-0.04,0.02,-0.01,-0.03
2022-12-29 8:20:49.1710,-0.045,-0.418,-0.917,-0.07,-0.04,0.06,0.01,-0.05,-0.03
2022-12-29 8:20:49.1810,-0.053,-0.421,-0.914,-0.04,0.0,0.1,-0.01,-0.06,-0.04
2022-12-29 8:20:49.1910,-0.064,-0.412,-0.898,0.08,-0.03,-0.03,-0.04,-0.04,-0.04
2022-12-29 8:20:49.2010,-0.068,-0.406,-0.888,0.14,-0.12,-0.17,-0.04,-0.0,-0.03
2022-12-29 8:20:49.2110,-0.064,-0.41,-0.888,0.14,-0.11,-0.2,-0.01,0.03,-0.02
2022-12-29 8:20:49.2210,-0.055,-0.413,-0.896,0.06,-0.06,-0.14,0.03,0.02,-0.01
2022-12-29 8:20:49.2310,-0.05,-0.411,-0.901,0.0,-0.08,-0.07,0.07,0.02,-0.01
2022-12-29 8:20:49.2410,-0.048,-0.411,-0.905,-0.03,-0.1,-0.03,0.08,0.02,-0.01
2022-12-29 8:20:49.2500,-0.047,-0.411,-0.909,-0.04,-0.1,0.02,0.06,0.02,-0.01
2022-12-29 8:20:49.2610,-0.046,-0.413,-0.909,-0.05,-0.09,0.03,0.04,0.02,-0.01
2022-12-29 8:20:49.2710,-0.043,-0.416,-0.902,-0.07,-0.07,-0.01,0.03,0.0,-0.01
2022-12-29 8:20:49.2810,-0.041,-0.416,-0.895,-0.09,-0.05,-0.08,0.02,-0.0,-0.01
2022-12-29 8:20:49.2900,-0.04,-0.417,-0.892,-0.1,-0.06,-0.12,0.01,-0.01,-0.01
2022-12-29 8:20:49.3000,-0.04,-0.418,-0.89,-0.11,-0.04,-0.15,-0.01,-0.0,-0.0
2022-12-29 8:20:49.3100,-0.039,-0.421,-0.894,-0.11,-0.01,-0.15,-0.03,-0.0,-0.0
2022-12-29 8:20:49.3200,-0.04,-0.418,-0.904,-0.12,-0.02,-0.06,-0.05,-0.01,0.01
2022-12-29 8:20:49.3300,-0.041,-0.414,-0.904,-0.1,-0.05,-0.02,-0.07,-0.02,0.01
2022-12-29 8:20:49.3400,-0.04,-0.412,-0.898,-0.1,-0.07,-0.07,-0.07,-0.02,0.02
2022-12-29 8:20:49.3500,-0.039,-0.414,-0.899,-0.12,-0.05,-0.1,-0.05,-0.01,0.04
2022-12-29 8:20:49.3600,-0.038,-0.415,-0.906,-0.13,-0.04,-0.03,-0.02,-0.02,0.05
2022-12-29 8:20:49.3700,-0.04,-0.414,-0.906,-0.13,-0.04,-0.01,0.0,0.0,0.05
2022-12-29 8:20:49.3800,-0.049,-0.413,-0.903,-0.07,-0.05,-0.02,-0.0,0.03,0.05
2022-12-29 8:20:49.3900,-0.055,-0.413,-0.901,0.01,-0.05,-0.06,-0.01,0.05,0.04
2022-12-29 8:20:49.4000,-0.056,-0.414,-0.899,0.05,-0.05,-0.07,0.0,0.08,0.04
2022-12-29 8:20:49.4100,-0.057,-0.415,-0.895,0.07,-0.03,-0.11,0.03,0.09,0.03
2022-12-29 8:20:49.4200,-0.059,-0.409,-0.894,0.09,-0.07,-0.13,0.05,0.09,0.02
2022-12-29 8:20:49.4300,-0.057,-0.406,-0.894,0.09,-0.13,-0.14,0.05,0.11,0.02
2022-12-29 8:20:49.4400,-0.053,-0.407,-0.899,0.07,-0.13,-0.1,0.05,0.11,0.01
2022-12-29 8:20:49.4500,-0.05,-0.405,-0.903,0.04,-0.14,-0.05,0.03,0.11,0.0
2022-12-29 8:20:49.4600,-0.049,-0.404,-0.908,0.05,-0.16,-0.01,0.01,0.1,-0.01
2022-12-29 8:20:49.4700,-0.044,-0.405,-0.908,0.01,-0.16,0.01,0.0,0.07,-0.01
2022-12-29 8:20:49.4800,-0.044,-0.41,-0.907,-0.01,-0.12,0.0,-0.0,0.06,-0.01
2022-12-29 8:20:49.4900,-0.043,-0.413,-0.91,0.0,-0.08,0.01,-0.0,0.06,0.0
2022-12-29 8:20:49.5000,-0.042,-0.422,-0.911,-0.01,-0.01,0.03,0.0,0.04,0.01
2022-12-29 8:20:49.5100,-0.042,-0.423,-0.914,-0.01,0.04,0.05,0.01,0.03,0.01
2022-12-29 8:20:49.5200,-0.04,-0.415,-0.917,-0.02,-0.02,0.09,0.01,0.01,0.01
2022-12-29 8:20:49.5300,-0.037,-0.412,-0.914,-0.05,-0.08,0.07,0.01,-0.01,0.01
2022-12-29 8:20:49.5400,-0.04,-0.416,-0.915,-0.05,-0.06,0.06,0.01,-0.02,0.0
2022-12-29 8:20:49.5490,-0.045,-0.426,-0.925,-0.01,0.02,0.13,0.0,-0.05,0.01
2022-12-29 8:20:49.5600,-0.044,-0.432,-0.93,0.01,0.11,0.21,-0.01,-0.07,0.02
2022-12-29 8:20:49.5690,-0.04,-0.427,-0.933,-0.05,0.1,0.23,-0.02,-0.12,0.03
2022-12-29 8:20:49.5790,-0.038,-0.42,-0.923,-0.08,0.01,0.22,-0.03,-0.15,0.03
2022-12-29 8:20:49.5890,-0.04,-0.419,-0.905,-0.09,0.0,0.03,-0.04,-0.15,0.03
2022-12-29 8:20:49.5990,-0.039,-0.413,-0.896,-0.1,-0.02,-0.08,-0.03,-0.14,0.03
2022-12-29 8:20:49.6090,-0.039,-0.4,-0.889,-0.13,-0.13,-0.16,-0.01,-0.13,0.03
2022-12-29 8:20:49.6190,-0.049,-0.391,-0.884,-0.06,-0.26,-0.22,0.03,-0.12,0.04
2022-12-29 8:20:49.6290,-0.042,-0.397,-0.887,-0.08,-0.26,-0.22,0.08,-0.09,0.03
2022-12-29 8:20:49.6390,-0.047,-0.404,-0.895,-0.09,-0.17,-0.15,0.12,-0.07,0.03
2022-12-29 8:20:49.6490,-0.051,-0.406,-0.902,-0.05,-0.16,-0.06,0.14,-0.06,0.04
2022-12-29 8:20:49.6590,-0.056,-0.407,-0.903,0.0,-0.15,-0.02,0.14,-0.05,0.04
2022-12-29 8:20:49.6690,-0.06,-0.412,-0.906,0.03,-0.15,-0.01,0.13,-0.04,0.03
2022-12-29 8:20:49.6790,-0.062,-0.417,-0.911,0.07,-0.08,0.06,0.12,-0.02,0.01
2022-12-29 8:20:49.6890,-0.059,-0.414,-0.907,0.04,-0.11,0.05,0.12,-0.01,-0.0
2022-12-29 8:20:49.6990,-0.064,-0.412,-0.902,0.07,-0.14,0.0,0.13,-0.01,-0.02
2022-12-29 8:20:49.7090,-0.069,-0.415,-0.9,0.13,-0.14,-0.03,0.14,-0.03,-0.03
2022-12-29 8:20:49.7190,-0.07,-0.421,-0.897,0.15,-0.1,-0.04,0.16,-0.03,-0.03
2022-12-29 8:20:49.7280,-0.068,-0.421,-0.891,0.14,-0.09,-0.08,0.16,-0.01,-0.02
2022-12-29 8:20:49.7390,-0.061,-0.423,-0.885,0.08,-0.11,-0.14,0.16,0.02,-0.01
2022-12-29 8:20:49.7480,-0.056,-0.43,-0.886,0.03,-0.05,-0.15,0.17,0.04,-0.01
2022-12-29 8:20:49.7590,-0.059,-0.426,-0.892,0.03,-0.06,-0.1,0.16,0.02,0.01
2022-12-29 8:20:49.7680,-0.053,-0.42,-0.902,0.02,-0.14,-0.01,0.15,-0.01,0.02
2022-12-29 8:20:49.7780,-0.045,-0.418,-0.906,-0.07,-0.2,0.07,0.15,-0.05,0.02
2022-12-29 8:20:49.7880,-0.04,-0.424,-0.902,-0.15,-0.17,0.06,0.16,-0.09,0.02
2022-12-29 8:20:49.7980,-0.037,-0.43,-0.893,-0.18,-0.12,-0.01,0.16,-0.1,0.0
2022-12-29 8:20:49.8080,-0.039,-0.435,-0.888,-0.21,-0.09,-0.07,0.14,-0.09,-0.02
2022-12-29 8:20:49.8180,-0.055,-0.45,-0.882,-0.09,0.02,-0.12,0.13,-0.05,-0.01
2022-12-29 8:20:49.8280,-0.061,-0.456,-0.877,0.02,0.12,-0.17,0.13,0.0,-0.01
2022-12-29 8:20:49.8380,-0.064,-0.449,-0.878,0.05,0.08,-0.17,0.14,0.03,-0.01
2022-12-29 8:20:49.8480,-0.063,-0.44,-0.877,0.06,-0.03,-0.16,0.14,0.06,-0.02
2022-12-29 8:20:49.8580,-0.065,-0.439,-0.875,0.07,-0.09,-0.18,0.15,0.1,-0.02
2022-12-29 8:20:49.8680,-0.066,-0.444,-0.881,0.11,-0.07,-0.14,0.15,0.14,-0.03
2022-12-29 8:20:49.8780,-0.064,-0.448,-0.887,0.11,-0.03,-0.07,0.15,0.16,-0.03
2022-12-29 8:20:49.8880,-0.065,-0.449,-0.887,0.12,-0.01,-0.04,0.14,0.16,-0.04
2022-12-29 8:20:49.8980,-0.067,-0.447,-0.879,0.16,-0.04,-0.08,0.13,0.14,-0.04
2022-12-29 8:20:49.9080,-0.066,-0.447,-0.867,0.18,-0.06,-0.2,0.11,0.13,-0.03
2022-12-29 8:20:49.9180,-0.058,-0.448,-0.857,0.14,-0.06,-0.29,0.09,0.16,-0.02
2022-12-29 8:20:49.9280,-0.052,-0.445,-0.85,0.08,-0.08,-0.38,0.08,0.19,-0.02
2022-12-29 8:20:49.9380,-0.044,-0.439,-0.849,0.04,-0.14,-0.41,0.08,0.22,-0.03
2022-12-29 8:20:49.9480,-0.037,-0.437,-0.851,-0.02,-0.18,-0.39,0.06,0.24,-0.04
2022-12-29 8:20:49.9580,-0.036,-0.438,-0.856,-0.04,-0.19,-0.35,0.04,0.27,-0.05
2022-12-29 8:20:49.9680,-0.038,-0.442,-0.86,0.02,-0.16,-0.31,0.03,0.31,-0.06
2022-12-29 8:20:49.9780,-0.033,-0.44,-0.882,0.02,-0.15,-0.19,0.02,0.26,-0.06
2022-12-29 8:20:49.9880,-0.02,-0.44,-0.902,-0.07,-0.18,0.07,-0.01,0.2,-0.07
2022-12-29 8:20:49.9980,-0.02,-0.445,-0.906,-0.11,-0.13,0.14,-0.05,0.18,-0.08
2022-12-29 8:20:50.0080,-0.022,-0.452,-0.909,-0.06,-0.07,0.18,-0.06,0.16,-0.09
2022-12-29 8:20:50.0170,-0.022,-0.459,-0.91,-0.04,0.01,0.18,-0.06,0.12,-0.09
2022-12-29 8:20:50.0280,-0.021,-0.465,-0.915,-0.04,0.08,0.21,-0.06,0.08,-0.08
2022-12-29 8:20:50.0380,-0.017,-0.47,-0.916,-0.05,0.13,0.25,-0.05,0.07,-0.06
2022-12-29 8:20:50.0480,-0.014,-0.472,-0.911,-0.08,0.18,0.2,-0.01,0.08,-0.03
2022-12-29 8:20:50.0580,-0.014,-0.47,-0.91,-0.09,0.17,0.19,0.03,0.07,-0.02
2022-12-29 8:20:50.0680,-0.01,-0.464,-0.908,-0.1,0.12,0.18,0.07,0.05,0.0
2022-12-29 8:20:50.0780,-0.008,-0.459,-0.904,-0.14,0.06,0.15,0.08,0.03,0.02
2022-12-29 8:20:50.0870,-0.008,-0.452,-0.897,-0.14,0.0,0.09,0.07,0.01,0.02
2022-12-29 8:20:50.0980,-0.011,-0.446,-0.895,-0.12,-0.08,0.05,0.05,-0.01,0.03
2022-12-29 8:20:50.1080,-0.009,-0.443,-0.894,-0.12,-0.12,0.04,0.02,-0.04,0.03
2022-12-29 8:20:50.1170,-0.01,-0.442,-0.894,-0.13,-0.14,0.04,-0.0,-0.07,0.03
2022-12-29 8:20:50.1270,-0.009,-0.444,-0.892,-0.14,-0.13,0.03,-0.01,-0.1,0.03
2022-12-29 8:20:50.1370,-0.011,-0.447,-0.885,-0.14,-0.1,-0.03,-0.0,-0.11,0.03
2022-12-29 8:20:50.1470,-0.017,-0.445,-0.884,-0.12,-0.09,-0.07,0.0,-0.1,0.03
2022-12-29 8:20:50.1570,-0.028,-0.428,-0.896,-0.03,-0.21,0.01,-0.03,-0.25,0.05
2022-12-29 8:20:50.1670,-0.028,-0.432,-0.884,-0.03,-0.27,0.0,-0.1,-0.31,0.04
2022-12-29 8:20:50.1770,-0.035,-0.444,-0.871,-0.02,-0.14,-0.17,-0.15,-0.29,0.01
2022-12-29 8:20:50.1870,-0.042,-0.45,-0.873,0.04,-0.04,-0.2,-0.19,-0.24,-0.01
2022-12-29 8:20:50.1970,-0.051,-0.455,-0.879,0.12,0.03,-0.17,-0.18,-0.2,-0.0
2022-12-29 8:20:50.2070,-0.049,-0.457,-0.889,0.13,0.07,-0.08,-0.14,-0.2,0.03
2022-12-29 8:20:50.2170,-0.042,-0.455,-0.89,0.04,0.09,-0.03,-0.09,-0.19,0.07
2022-12-29 8:20:50.2270,-0.047,-0.444,-0.885,0.02,0.01,-0.07,-0.03,-0.12,0.09
2022-12-29 8:20:50.2370,-0.051,-0.435,-0.883,0.1,-0.1,-0.11,0.05,0.01,0.07
2022-12-29 8:20:50.2470,-0.034,-0.432,-0.889,0.0,-0.15,-0.07,0.13,0.07,0.04
2022-12-29 8:20:50.2570,-0.022,-0.439,-0.894,-0.17,-0.15,0.01,0.15,0.04,0.01
2022-12-29 8:20:50.2670,-0.027,-0.45,-0.888,-0.17,-0.04,-0.01,0.11,0.01,-0.02
2022-12-29 8:20:50.2770,-0.038,-0.457,-0.878,-0.07,0.03,-0.1,0.04,-0.0,-0.03
2022-12-29 8:20:50.2870,-0.047,-0.457,-0.871,0.04,0.07,-0.19,-0.03,-0.01,-0.05
2022-12-29 8:20:50.2970,-0.05,-0.454,-0.873,0.09,0.04,-0.2,-0.11,-0.02,-0.07
2022-12-29 8:20:50.3060,-0.049,-0.454,-0.873,0.08,0.04,-0.19,-0.16,-0.03,-0.06
2022-12-29 8:20:50.3170,-0.042,-0.453,-0.872,0.06,0.06,-0.21,-0.17,-0.02,-0.05
2022-12-29 8:20:50.3270,-0.031,-0.448,-0.87,-0.07,0.04,-0.25,-0.15,-0.01,-0.04
2022-12-29 8:20:50.3370,-0.031,-0.438,-0.875,-0.1,-0.02,-0.21,-0.11,0.01,-0.02
2022-12-29 8:20:50.3460,-0.033,-0.428,-0.876,-0.07,-0.13,-0.19,-0.06,0.03,-0.01
2022-12-29 8:20:50.3560,-0.03,-0.425,-0.878,-0.07,-0.18,-0.19,-0.01,0.06,-0.0
2022-12-29 8:20:50.3660,-0.025,-0.429,-0.886,-0.12,-0.18,-0.12,0.03,0.08,0.0
2022-12-29 8:20:50.3760,-0.024,-0.434,-0.894,-0.13,-0.12,-0.04,0.06,0.08,0.01
2022-12-29 8:20:50.3860,-0.023,-0.438,-0.898,-0.13,-0.09,0.02,0.09,0.09,0.01
2022-12-29 8:20:50.3960,-0.02,-0.439,-0.898,-0.14,-0.07,0.04,0.12,0.12,0.02
2022-12-29 8:20:50.4060,-0.019,-0.435,-0.897,-0.16,-0.1,0.03,0.16,0.14,0.03
2022-12-29 8:20:50.4160,-0.021,-0.432,-0.901,-0.14,-0.16,0.05,0.19,0.13,0.03
2022-12-29 8:20:50.4260,-0.025,-0.442,-0.909,-0.1,-0.15,0.13,0.21,0.13,0.03
2022-12-29 8:20:50.4360,-0.033,-0.459,-0.912,-0.01,0.0,0.19,0.21,0.13,0.04
2022-12-29 8:20:50.4460,-0.034,-0.465,-0.915,0.03,0.1,0.23,0.2,0.12,0.04
2022-12-29 8:20:50.4560,-0.034,-0.464,-0.908,0.04,0.09,0.21,0.18,0.1,0.06
2022-12-29 8:20:50.4660,-0.035,-0.459,-0.899,0.03,0.03,0.12,0.16,0.07,0.07
2022-12-29 8:20:50.4760,-0.046,-0.452,-0.893,0.13,-0.04,0.06,0.15,0.04,0.07
2022-12-29 8:20:50.4860,-0.031,-0.442,-0.874,0.09,-0.14,-0.07,0.14,0.05,0.05
2022-12-29 8:20:50.4960,-0.024,-0.44,-0.869,-0.05,-0.23,-0.2,0.13,0.06,0.04
2022-12-29 8:20:50.5060,-0.034,-0.448,-0.881,0.03,-0.14,-0.1,0.13,0.05,0.03
2022-12-29 8:20:50.5160,-0.031,-0.45,-0.881,0.02,-0.15,-0.07,0.11,0.05,0.03
2022-12-29 8:20:50.5260,-0.046,-0.454,-0.894,0.14,-0.09,0.04,0.09,0.02,0.02
2022-12-29 8:20:50.5360,-0.047,-0.452,-0.888,0.17,-0.14,0.04,0.08,0.03,0.02
2022-12-29 8:20:50.5460,-0.05,-0.454,-0.885,0.23,-0.11,0.01,0.07,0.02,0.0
2022-12-29 8:20:50.5560,-0.043,-0.451,-0.874,0.17,-0.14,-0.06,0.07,0.03,-0.01
2022-12-29 8:20:50.5660,-0.044,-0.455,-0.871,0.15,-0.13,-0.15,0.08,0.03,-0.02
2022-12-29 8:20:50.5760,-0.042,-0.458,-0.879,0.19,-0.09,-0.07,0.06,0.03,-0.03
2022-12-29 8:20:50.5860,-0.029,-0.459,-0.879,0.05,-0.09,-0.07,0.05,0.02,-0.04
2022-12-29 8:20:50.5960,-0.028,-0.463,-0.888,0.02,-0.05,0.0,0.02,-0.01,-0.04
2022-12-29 8:20:50.6050,-0.018,-0.459,-0.891,-0.05,-0.06,0.06,-0.0,-0.05,-0.04
2022-12-29 8:20:50.6160,-0.014,-0.453,-0.888,-0.13,-0.12,0.05,-0.02,-0.08,-0.05
2022-12-29 8:20:50.6250,-0.017,-0.45,-0.884,-0.13,-0.16,0.01,-0.02,-0.1,-0.05
2022-12-29 8:20:50.6350,-0.024,-0.451,-0.883,-0.07,-0.16,-0.02,-0.03,-0.11,-0.06
2022-12-29 8:20:50.6450,-0.029,-0.46,-0.886,-0.02,-0.1,0.0,-0.03,-0.12,-0.05
2022-12-29 8:20:50.6550,-0.033,-0.467,-0.888,0.01,-0.01,0.02,-0.03,-0.13,-0.05
2022-12-29 8:20:50.6650,-0.036,-0.467,-0.888,0.03,0.02,0.03,-0.03,-0.13,-0.04
2022-12-29 8:20:50.6750,-0.038,-0.465,-0.883,0.05,0.0,0.0,-0.04,-0.12,-0.03
2022-12-29 8:20:50.6850,-0.038,-0.462,-0.883,0.04,-0.02,-0.03,-0.04,-0.11,-0.03
2022-12-29 8:20:50.6950,-0.04,-0.461,-0.884,0.06,-0.04,-0.02,-0.04,-0.09,-0.03
2022-12-29 8:20:50.7050,-0.036,-0.461,-0.883,0.04,-0.03,-0.01,-0.04,-0.07,-0.03
2022-12-29 8:20:50.7150,-0.033,-0.46,-0.877,-0.01,-0.04,-0.06,-0.04,-0.07,-0.03
2022-12-29 8:20:50.7250,-0.029,-0.461,-0.87,-0.03,-0.03,-0.13,-0.04,-0.06,-0.03
2022-12-29 8:20:50.7350,-0.025,-0.463,-0.863,-0.08,-0.01,-0.2,-0.03,-0.04,-0.02
2022-12-29 8:20:50.7450,-0.023,-0.462,-0.859,-0.1,0.0,-0.26,-0.01,-0.02,-0.01
2022-12-29 8:20:50.7550,-0.019,-0.459,-0.856,-0.14,-0.04,-0.29,0.01,-0.0,-0.01
2022-12-29 8:20:50.7650,-0.018,-0.46,-0.854,-0.16,-0.04,-0.31,0.02,0.01,-0.01
2022-12-29 8:20:50.7750,-0.018,-0.464,-0.852,-0.16,-0.01,-0.34,0.03,0.03,-0.01
2022-12-29 8:20:50.7850,-0.015,-0.466,-0.856,-0.18,0.02,-0.32,0.01,0.04,-0.01
2022-12-29 8:20:50.7950,-0.019,-0.468,-0.861,-0.18,0.04,-0.26,-0.01,0.02,-0.01
2022-12-29 8:20:50.8050,-0.021,-0.469,-0.859,-0.12,0.06,-0.26,-0.05,0.02,-0.0
2022-12-29 8:20:50.8150,-0.021,-0.47,-0.865,-0.13,0.07,-0.25,-0.08,0.02,0.0
2022-12-29 8:20:50.8250,-0.025,-0.47,-0.871,-0.1,0.09,-0.17,-0.11,0.01,-0.0
2022-12-29 8:20:50.8350,-0.027,-0.466,-0.872,-0.07,0.07,-0.16,-0.11,0.01,0.0
2022-12-29 8:20:50.8440,-0.027,-0.464,-0.877,-0.06,0.05,-0.14,-0.11,0.01,0.01
2022-12-29 8:20:50.8550,-0.027,-0.46,-0.884,-0.06,0.03,-0.07,-0.1,0.02,0.01
2022-12-29 8:20:50.8640,-0.026,-0.456,-0.891,-0.06,0.0,-0.01,-0.07,0.02,0.01
2022-12-29 8:20:50.8740,-0.027,-0.453,-0.901,-0.06,-0.04,0.07,-0.05,0.01,0.02
2022-12-29 8:20:50.8840,-0.03,-0.452,-0.911,-0.03,-0.05,0.18,-0.03,-0.0,0.02
2022-12-29 8:20:50.8940,-0.032,-0.45,-0.909,-0.02,-0.06,0.21,-0.02,-0.02,0.02
2022-12-29 8:20:50.9040,-0.035,-0.446,-0.903,0.0,-0.09,0.15,-0.02,-0.04,0.03
2022-12-29 8:20:50.9140,-0.04,-0.444,-0.898,0.05,-0.12,0.1,-0.02,-0.04,0.02
2022-12-29 8:20:50.9240,-0.04,-0.44,-0.894,0.07,-0.15,0.05,-0.04,-0.04,0.02
2022-12-29 8:20:50.9340,-0.041,-0.438,-0.892,0.06,-0.17,0.02,-0.05,-0.05,0.02
2022-12-29 8:20:50.9440,-0.041,-0.438,-0.892,0.06,-0.18,0.02,-0.07,-0.06,0.02
2022-12-29 8:20:50.9540,-0.039,-0.442,-0.888,0.04,-0.13,-0.01,-0.07,-0.06,0.01
2022-12-29 8:20:50.9640,-0.037,-0.447,-0.882,0.01,-0.09,-0.07,-0.06,-0.04,0.01
2022-12-29 8:20:50.9740,-0.035,-0.447,-0.881,0.01,-0.04,-0.12,-0.03,-0.01,0.01
2022-12-29 8:20:50.9840,-0.031,-0.438,-0.89,-0.04,-0.13,-0.04,-0.02,-0.0,-0.0
2022-12-29 8:20:50.9940,-0.033,-0.438,-0.893,-0.03,-0.16,0.01,-0.0,-0.0,-0.01
2022-12-29 8:20:51.0040,-0.034,-0.446,-0.892,-0.02,-0.1,0.01,0.02,0.0,-0.01
2022-12-29 8:20:51.0140,-0.036,-0.45,-0.892,0.01,-0.04,0.0,0.03,0.01,-0.01
2022-12-29 8:20:51.0240,-0.036,-0.447,-0.89,0.0,-0.05,0.0,0.03,0.02,-0.01
2022-12-29 8:20:51.0340,-0.041,-0.445,-0.889,0.04,-0.08,-0.01,0.03,0.02,-0.02
2022-12-29 8:20:51.0440,-0.042,-0.444,-0.887,0.08,-0.1,-0.03,0.02,0.02,-0.02
2022-12-29 8:20:51.0540,-0.039,-0.445,-0.888,0.05,-0.09,-0.04,0.01,0.01,-0.03
2022-12-29 8:20:51.0640,-0.039,-0.445,-0.891,0.05,-0.09,-0.01,-0.0,-0.01,-0.02
2022-12-29 8:20:51.0740,-0.039,-0.444,-0.891,0.05,-0.09,0.01,0.0,-0.02,-0.02
2022-12-29 8:20:51.0840,-0.039,-0.444,-0.894,0.04,-0.1,0.01,0.0,-0.03,-0.02
2022-12-29 8:20:51.0940,-0.041,-0.448,-0.899,0.04,-0.07,0.06,-0.0,-0.05,-0.02
2022-12-29 8:20:51.1030,-0.04,-0.452,-0.897,0.06,-0.03,0.07,0.0,-0.05,-0.03
2022-12-29 8:20:51.1140,-0.037,-0.456,-0.892,0.02,0.0,0.03,0.01,-0.05,-0.03
2022-12-29 8:20:51.1240,-0.035,-0.458,-0.888,0.0,0.04,-0.01,0.03,-0.05,-0.02
2022-12-29 8:20:51.1340,-0.033,-0.456,-0.88,-0.02,0.02,-0.08,0.04,-0.04,-0.02
2022-12-29 8:20:51.1430,-0.033,-0.452,-0.878,-0.04,-0.02,-0.12,0.05,-0.03,-0.02
2022-12-29 8:20:51.1530,-0.033,-0.449,-0.879,-0.03,-0.05,-0.12,0.05,-0.02,-0.02
2022-12-29 8:20:51.1630,-0.032,-0.449,-0.88,-0.04,-0.07,-0.09,0.04,-0.02,-0.02
2022-12-29 8:20:51.1730,-0.029,-0.45,-0.881,-0.06,-0.07,-0.1,0.03,-0.02,-0.01
2022-12-29 8:20:51.1830,-0.026,-0.453,-0.882,-0.1,-0.04,-0.08,0.02,-0.04,-0.0
2022-12-29 8:20:51.1930,-0.024,-0.451,-0.881,-0.13,-0.03,-0.08,0.01,-0.04,-0.0
2022-12-29 8:20:51.2030,-0.023,-0.45,-0.882,-0.14,-0.06,-0.08,0.01,-0.05,-0.0
2022-12-29 8:20:51.2130,-0.028,-0.449,-0.88,-0.12,-0.07,-0.08,0.0,-0.05,-0.0
2022-12-29 8:20:51.2230,-0.032,-0.451,-0.875,-0.07,-0.06,-0.12,-0.01,-0.06,0.0
2022-12-29 8:20:51.2330,-0.036,-0.457,-0.871,-0.05,-0.01,-0.18,-0.03,-0.05,0.0
2022-12-29 8:20:51.2430,-0.039,-0.464,-0.872,-0.01,0.06,-0.19,-0.05,-0.03,0.01
2022-12-29 8:20:51.2530,-0.034,-0.462,-0.875,-0.03,0.09,-0.16,-0.04,-0.01,0.01
2022-12-29 8:20:51.2630,-0.031,-0.453,-0.878,-0.08,0.02,-0.13,-0.01,-0.01,0.01
2022-12-29 8:20:51.2730,-0.033,-0.447,-0.882,-0.07,-0.06,-0.1,0.01,-0.0,0.02
2022-12-29 8:20:51.2830,-0.034,-0.447,-0.884,-0.05,-0.09,-0.07,0.01,0.0,0.01
2022-12-29 8:20:51.2930,-0.032,-0.449,-0.888,-0.06,-0.06,-0.04,0.01,-0.0,0.01
2022-12-29 8:20:51.3030,-0.035,-0.45,-0.891,-0.06,-0.04,0.0,-0.01,-0.02,0.0
2022-12-29 8:20:51.3130,-0.039,-0.449,-0.888,-0.02,-0.05,-0.01,-0.03,-0.04,0.01
2022-12-29 8:20:51.3230,-0.042,-0.446,-0.88,0.01,-0.07,-0.07,-0.06,-0.04,0.01
2022-12-29 8:20:51.3330,-0.046,-0.446,-0.875,0.05,-0.08,-0.15,-0.07,-0.05,0.01
2022-12-29 8:20:51.3430,-0.045,-0.45,-0.876,0.05,-0.05,-0.16,-0.09,-0.05,0.01
2022-12-29 8:20:51.3530,-0.044,-0.455,-0.882,0.03,0.02,-0.13,-0.1,-0.06,0.02
2022-12-29 8:20:51.3630,-0.039,-0.455,-0.893,-0.01,0.05,-0.04,-0.11,-0.09,0.03
2022-12-29 8:20:51.3730,-0.031,-0.458,-0.907,-0.09,0.07,0.09,-0.12,-0.14,0.04
2022-12-29 8:20:51.3820,-0.027,-0.462,-0.918,-0.17,0.12,0.2,-0.14,-0.19,0.06
2022-12-29 8:20:51.3930,-0.028,-0.459,-0.922,-0.19,0.13,0.26,-0.14,-0.23,0.08
2022-12-29 8:20:51.4020,-0.031,-0.459,-0.924,-0.19,0.12,0.28,-0.12,-0.26,0.11
2022-12-29 8:20:51.4120,-0.03,-0.458,-0.924,-0.21,0.14,0.3,-0.08,-0.27,0.14
2022-12-29 8:20:51.4220,-0.035,-0.45,-0.914,-0.23,0.09,0.21,-0.04,-0.28,0.17
2022-12-29 8:20:51.4320,-0.038,-0.441,-0.905,-0.21,0.01,0.13,-0.01,-0.28,0.18
2022-12-29 8:20:51.4420,-0.041,-0.431,-0.894,-0.24,-0.11,0.06,0.0,-0.29,0.18
2022-12-29 8:20:51.4520,-0.065,-0.432,-0.881,-0.06,-0.12,-0.09,-0.0,-0.31,0.16
2022-12-29 8:20:51.4620,-0.056,-0.424,-0.871,-0.09,-0.16,-0.2,-0.03,-0.27,0.13
2022-12-29 8:20:51.4720,-0.061,-0.42,-0.862,-0.1,-0.21,-0.27,-0.07,-0.21,0.12
2022-12-29 8:20:51.4820,-0.069,-0.412,-0.863,-0.08,-0.28,-0.35,-0.07,-0.17,0.14
2022-12-29 8:20:51.4920,-0.085,-0.415,-0.874,0.06,-0.28,-0.23,-0.06,-0.16,0.13
2022-12-29 8:20:51.5020,-0.098,-0.424,-0.871,0.19,-0.2,-0.2,-0.05,-0.16,0.07
2022-12-29 8:20:51.5120,-0.095,-0.427,-0.851,0.18,-0.14,-0.37,-0.05,-0.08,0.02
2022-12-29 8:20:51.5220,-0.114,-0.428,-0.849,0.29,-0.11,-0.46,-0.05,-0.02,0.01
2022-12-29 8:20:51.5320,-0.11,-0.418,-0.858,0.38,-0.16,-0.42,-0.07,0.02,-0.01
2022-12-29 8:20:51.5420,-0.104,-0.414,-0.868,0.27,-0.25,-0.29,-0.09,0.04,-0.04
2022-12-29 8:20:51.5520,-0.109,-0.423,-0.866,0.31,-0.18,-0.3,-0.09,0.07,-0.04
2022-12-29 8:20:51.5620,-0.107,-0.431,-0.875,0.35,-0.08,-0.27,-0.09,0.1,-0.04
2022-12-29 8:20:51.5720,-0.096,-0.434,-0.89,0.27,-0.03,-0.13,-0.07,0.14,-0.04
2022-12-29 8:20:51.5820,-0.087,-0.431,-0.901,0.18,-0.04,0.0,-0.03,0.17,-0.04
2022-12-29 8:20:51.5920,-0.082,-0.428,-0.904,0.15,-0.07,0.05,0.03,0.19,-0.04
2022-12-29 8:20:51.6020,-0.073,-0.423,-0.909,0.1,-0.12,0.09,0.08,0.21,-0.04
2022-12-29 8:20:51.6110,-0.067,-0.424,-0.913,0.04,-0.14,0.14,0.12,0.22,-0.05
2022-12-29 8:20:51.6220,-0.062,-0.428,-0.914,0.01,-0.12,0.16,0.13,0.2,-0.05
2022-12-29 8:20:51.6320,-0.058,-0.431,-0.914,-0.02,-0.1,0.17,0.13,0.18,-0.05
2022-12-29 8:20:51.6420,-0.054,-0.437,-0.915,-0.05,-0.07,0.18,0.12,0.14,-0.05
2022-12-29 8:20:51.6520,-0.05,-0.443,-0.913,-0.07,-0.01,0.18,0.11,0.09,-0.04
2022-12-29 8:20:51.6610,-0.046,-0.443,-0.91,-0.1,0.0,0.15,0.1,0.05,-0.03
2022-12-29 8:20:51.6710,-0.042,-0.447,-0.906,-0.15,0.02,0.12,0.1,0.03,-0.03
2022-12-29 8:20:51.6810,-0.046,-0.446,-0.904,-0.13,0.02,0.1,0.09,0.0,-0.01
2022-12-29 8:20:51.6910,-0.044,-0.443,-0.903,-0.13,-0.02,0.1,0.09,-0.03,0.0
2022-12-29 8:20:51.7010,-0.045,-0.445,-0.9,-0.14,-0.03,0.08,0.09,-0.04,0.01
2022-12-29 8:20:51.7110,-0.048,-0.449,-0.896,-0.12,0.0,0.04,0.09,-0.05,0.02
2022-12-29 8:20:51.7210,-0.049,-0.452,-0.89,-0.12,0.03,0.0,0.09,-0.06,0.03
2022-12-29 8:20:51.7310,-0.052,-0.454,-0.881,-0.09,0.05,-0.09,0.08,-0.07,0.05
2022-12-29 8:20:51.7410,-0.049,-0.454,-0.874,-0.11,0.05,-0.15,0.07,-0.06,0.07
2022-12-29 8:20:51.7510,-0.05,-0.451,-0.869,-0.13,0.03,-0.21,0.06,-0.05,0.06
2022-12-29 8:20:51.7610,-0.051,-0.443,-0.866,-0.12,-0.02,-0.24,0.05,-0.03,0.06
2022-12-29 8:20:51.7710,-0.056,-0.436,-0.863,-0.09,-0.12,-0.27,0.04,-0.02,0.04
2022-12-29 8:20:51.7810,-0.059,-0.436,-0.863,-0.05,-0.15,-0.28,0.04,-0.0,0.03
2022-12-29 8:20:51.7910,-0.06,-0.445,-0.865,-0.02,-0.09,-0.26,0.04,0.05,0.02
2022-12-29 8:20:51.8010,-0.062,-0.447,-0.866,-0.01,-0.04,-0.25,0.07,0.08,0.02
2022-12-29 8:20:51.8110,-0.065,-0.445,-0.866,0.03,-0.06,-0.25,0.12,0.11,0.01
2022-12-29 8:20:51.8210,-0.068,-0.441,-0.869,0.07,-0.11,-0.23,0.16,0.15,0.01
2022-12-29 8:20:51.8310,-0.07,-0.441,-0.875,0.11,-0.14,-0.17,0.18,0.18,0.01
2022-12-29 8:20:51.8410,-0.07,-0.442,-0.881,0.14,-0.15,-0.1,0.17,0.2,0.01
2022-12-29 8:20:51.8510,-0.065,-0.445,-0.887,0.13,-0.14,-0.04,0.15,0.2,0.0
2022-12-29 8:20:51.8610,-0.06,-0.449,-0.895,0.08,-0.12,0.04,0.12,0.17,-0.0
2022-12-29 8:20:51.8710,-0.059,-0.453,-0.898,0.09,-0.07,0.09,0.09,0.13,-0.0
2022-12-29 8:20:51.8810,-0.053,-0.455,-0.898,0.04,-0.05,0.11,0.05,0.09,-0.01
2022-12-29 8:20:51.8910,-0.053,-0.457,-0.894,0.02,-0.04,0.08,0.01,0.06,-0.01
2022-12-29 8:20:51.9000,-0.054,-0.457,-0.891,0.05,-0.02,0.04,-0.01,0.03,-0.01
2022-12-29 8:20:51.9110,-0.053,-0.455,-0.89,0.03,-0.04,0.03,-0.03,0.0,-0.01
2022-12-29 8:20:51.9200,-0.052,-0.455,-0.884,0.03,-0.05,-0.01,-0.03,-0.0,-0.01
2022-12-29 8:20:51.9300,-0.054,-0.453,-0.881,0.03,-0.05,-0.06,-0.03,0.01,-0.01
2022-12-29 8:20:51.9400,-0.053,-0.45,-0.882,0.04,-0.07,-0.07,-0.03,0.02,-0.01
2022-12-29 8:20:51.9500,-0.052,-0.449,-0.887,0.03,-0.09,-0.03,-0.02,0.02,-0.01
2022-12-29 8:20:51.9600,-0.052,-0.448,-0.891,0.03,-0.1,0.02,-0.01,0.02,-0.01
2022-12-29 8:20:51.9700,-0.05,-0.447,-0.888,0.02,-0.11,0.02,-0.0,0.02,-0.01
2022-12-29 8:20:51.9800,-0.047,-0.447,-0.885,-0.01,-0.11,-0.03,0.01,0.04,-0.02
2022-12-29 8:20:51.9900,-0.047,-0.448,-0.888,-0.01,-0.1,-0.02,0.03,0.04,-0.03
2022-12-29 8:20:52.0000,-0.05,-0.445,-0.887,0.01,-0.13,0.01,0.05,0.03,-0.03
2022-12-29 8:20:52.0100,-0.054,-0.447,-0.881,0.07,-0.12,-0.04,0.06,0.04,-0.04
2022-12-29 8:20:52.0200,-0.053,-0.449,-0.882,0.07,-0.11,-0.07,0.06,0.03,-0.03
2022-12-29 8:20:52.0300,-0.055,-0.449,-0.884,0.08,-0.1,-0.04,0.05,0.03,-0.04
2022-12-29 8:20:52.0400,-0.044,-0.44,-0.898,0.06,-0.14,0.02,0.01,0.02,-0.06
2022-12-29 8:20:52.0500,-0.045,-0.437,-0.902,-0.07,-0.25,0.17,-0.01,-0.01,-0.09
2022-12-29 8:20:52.0600,-0.064,-0.448,-0.889,0.14,-0.15,0.05,0.01,-0.02,-0.07
2022-12-29 8:20:52.0700,-0.057,-0.45,-0.889,0.16,-0.1,0.01,0.04,-0.03,-0.06
2022-12-29 8:20:52.0800,-0.044,-0.448,-0.893,0.02,-0.12,0.04,0.06,-0.02,-0.07
2022-12-29 8:20:52.0900,-0.048,-0.457,-0.894,0.01,-0.08,0.07,0.07,-0.03,-0.08
2022-12-29 8:20:52.1000,-0.049,-0.465,-0.895,0.04,0.01,0.08,0.06,-0.04,-0.08
2022-12-29 8:20:52.1100,-0.046,-0.471,-0.886,0.03,0.06,0.04,0.06,-0.02,-0.06
2022-12-29 8:20:52.1200,-0.039,-0.474,-0.876,-0.03,0.11,-0.08,0.07,-0.01,-0.05
2022-12-29 8:20:52.1300,-0.036,-0.473,-0.875,-0.08,0.1,-0.1,0.08,0.01,-0.04
2022-12-29 8:20:52.1400,-0.036,-0.468,-0.876,-0.08,0.06,-0.1,0.09,0.02,-0.03
2022-12-29 8:20:52.1500,-0.029,-0.46,-0.88,-0.12,-0.02,-0.05,0.08,0.0,-0.02
2022-12-29 8:20:52.1590,-0.024,-0.454,-0.871,-0.19,-0.1,-0.09,0.06,-0.02,-0.02
2022-12-29 8:20:52.1690,-0.022,-0.456,-0.865,-0.21,-0.11,-0.18,0.02,-0.03,-0.03
2022-12-29 8:20:52.1790,-0.022,-0.46,-0.866,-0.23,-0.07,-0.19,-0.03,-0.07,-0.03
2022-12-29 8:20:52.1890,-0.024,-0.465,-0.869,-0.22,-0.02,-0.17,-0.1,-0.13,-0.02
2022-12-29 8:20:52.1990,-0.024,-0.467,-0.87,-0.23,0.03,-0.15,-0.2,-0.19,-0.02
2022-12-29 8:20:52.2090,-0.024,-0.471,-0.873,-0.24,0.07,-0.15,-0.29,-0.21,-0.02
2022-12-29 8:20:52.2190,-0.028,-0.471,-0.878,-0.25,0.14,-0.11,-0.33,-0.24,-0.01
2022-12-29 8:20:52.2290,-0.04,-0.462,-0.876,-0.18,0.1,-0.13,-0.31,-0.24,0.01
2022-12-29 8:20:52.2390,-0.062,-0.455,-0.882,-0.01,0.04,-0.12,-0.25,-0.25,0.04
2022-12-29 8:20:52.2490,-0.058,-0.451,-0.874,0.06,0.01,-0.11,-0.19,-0.19,0.05
2022-12-29 8:20:52.2590,-0.054,-0.451,-0.871,-0.05,0.01,-0.23,-0.14,-0.14,0.04
2022-12-29 8:20:52.2690,-0.061,-0.451,-0.884,0.0,0.02,-0.12,-0.1,-0.08,0.03
2022-12-29 8:20:52.2790,-0.061,-0.448,-0.887,0.03,0.01,-0.07,-0.07,-0.03,0.02
2022-12-29 8:20:52.2890,-0.065,-0.443,-0.889,0.04,-0.03,-0.04,-0.03,-0.01,0.02
2022-12-29 8:20:52.2990,-0.073,-0.442,-0.891,0.12,-0.06,-0.02,-0.01,0.0,0.03
2022-12-29 8:20:52.3090,-0.071,-0.441,-0.89,0.14,-0.07,-0.02,0.0,0.02,0.03
2022-12-29 8:20:52.3190,-0.068,-0.44,-0.887,0.1,-0.08,-0.04,0.0,0.02,0.02
2022-12-29 8:20:52.3290,-0.068,-0.437,-0.884,0.09,-0.1,-0.08,-0.01,0.02,0.01
2022-12-29 8:20:52.3390,-0.071,-0.435,-0.887,0.11,-0.13,-0.08,-0.02,0.02,0.01
2022-12-29 8:20:52.3490,-0.071,-0.437,-0.891,0.13,-0.11,-0.03,-0.02,0.01,0.01
2022-12-29 8:20:52.3590,-0.067,-0.436,-0.887,0.11,-0.11,-0.04,-0.02,0.02,0.01
2022-12-29 8:20:52.3690,-0.063,-0.434,-0.886,0.06,-0.13,-0.07,-0.01,0.03,0.0
2022-12-29 8:20:52.3790,-0.065,-0.433,-0.883,0.07,-0.13,-0.09,0.0,0.03,-0.0
2022-12-29 8:20:52.3890,-0.066,-0.428,-0.892,0.08,-0.17,-0.08,-0.02,0.03,-0.01
2022-12-29 8:20:52.3990,-0.071,-0.429,-0.902,0.13,-0.19,0.1,-0.07,0.01,-0.02
2022-12-29 8:20:52.4090,-0.07,-0.444,-0.874,0.13,-0.08,-0.11,-0.08,0.01,-0.03
2022-12-29 8:20:52.4190,-0.074,-0.443,-0.903,0.15,0.03,-0.13,-0.18,0.06,-0.02
2022-12-29 8:20:52.4290,-0.065,-0.434,-0.913,0.14,-0.08,0.27,-0.23,-0.01,-0.02
2022-12-29 8:20:52.4380,-0.066,-0.427,-0.879,0.03,-0.06,-0.14,-0.26,0.01,-0.0
2022-12-29 8:20:52.4480,-0.088,-0.415,-0.894,0.27,-0.21,-0.08,-0.29,0.07,0.09
2022-12-29 8:20:52.4580,-0.073,-0.423,-0.896,0.25,-0.14,-0.05,-0.29,0.07,0.15
2022-12-29 8:20:52.4680,-0.051,-0.428,-0.903,0.01,-0.06,0.0,-0.26,0.04,0.16
2022-12-29 8:20:52.4780,-0.039,-0.431,-0.904,-0.12,0.0,0.03,-0.22,0.02,0.14
2022-12-29 8:20:52.4880,-0.026,-0.425,-0.891,-0.27,-0.01,-0.05,-0.17,0.03,0.1
2022-12-29 8:20:52.4980,-0.023,-0.426,-0.883,-0.34,-0.03,-0.19,-0.12,0.03,0.05
2022-12-29 8:20:52.5080,-0.022,-0.432,-0.88,-0.34,0.03,-0.22,-0.07,0.03,0.0
2022-12-29 8:20:52.5180,-0.028,-0.44,-0.884,-0.32,0.11,-0.22,-0.01,0.02,-0.03
2022-12-29 8:20:52.5280,-0.042,-0.439,-0.896,-0.19,0.15,-0.12,0.03,0.02,-0.03
2022-12-29 8:20:52.5380,-0.051,-0.431,-0.91,-0.07,0.07,0.02,0.04,0.02,-0.01
2022-12-29 8:20:52.5480,-0.048,-0.426,-0.915,-0.07,0.01,0.12,0.03,0.0,-0.0
2022-12-29 8:20:52.5580,-0.046,-0.427,-0.914,-0.1,-0.01,0.11,0.03,-0.02,0.0
2022-12-29 8:20:52.5680,-0.046,-0.429,-0.918,-0.09,0.01,0.13,0.01,-0.03,0.01
2022-12-29 8:20:52.5780,-0.044,-0.428,-0.914,-0.12,0.02,0.14,0.01,-0.04,0.02
2022-12-29 8:20:52.5880,-0.047,-0.426,-0.898,-0.12,-0.01,0.0,0.04,-0.04,0.03
2022-12-29 8:20:52.5980,-0.052,-0.421,-0.896,-0.08,-0.05,-0.09,0.06,-0.03,0.04
2022-12-29 8:20:52.6080,-0.053,-0.418,-0.894,-0.02,-0.1,-0.04,0.08,-0.02,0.04
2022-12-29 8:20:52.6180,-0.051,-0.419,-0.89,-0.08,-0.11,-0.12,0.1,-0.01,0.03
2022-12-29 8:20:52.6280,-0.06,-0.42,-0.898,0.0,-0.1,-0.06,0.09,-0.01,0.03
2022-12-29 8:20:52.6380,-0.061,-0.417,-0.897,0.04,-0.13,-0.03,0.08,-0.01,0.02
2022-12-29 8:20:52.6480,-0.064,-0.416,-0.892,0.04,-0.15,-0.07,0.07,-0.01,0.01
2022-12-29 8:20:52.6570,-0.067,-0.419,-0.888,0.08,-0.15,-0.11,0.07,-0.01,0.01
2022-12-29 8:20:52.6680,-0.071,-0.422,-0.882,0.12,-0.12,-0.16,0.06,-0.0,0.0
2022-12-29 8:20:52.6780,-0.076,-0.422,-0.882,0.16,-0.11,-0.19,0.05,0.02,-0.0
2022-12-29 8:20:52.6880,-0.076,-0.423,-0.885,0.19,-0.11,-0.16,0.03,0.03,-0.01
2022-12-29 8:20:52.6970,-0.075,-0.422,-0.889,0.18,-0.11,-0.13,0.02,0.03,-0.02
2022-12-29 8:20:52.7070,-0.077,-0.424,-0.897,0.2,-0.11,-0.06,0.0,0.03,-0.02
2022-12-29 8:20:52.7170,-0.073,-0.428,-0.899,0.18,-0.07,-0.01,0.0,0.04,-0.02
2022-12-29 8:20:52.7270,-0.066,-0.429,-0.901,0.13,-0.04,0.0,0.02,0.04,-0.03
2022-12-29 8:20:52.7370,-0.06,-0.427,-0.902,0.07,-0.06,0.03,0.04,0.04,-0.04
2022-12-29 8:20:52.7470,-0.055,-0.425,-0.894,0.02,-0.09,-0.02,0.07,0.06,-0.04
2022-12-29 8:20:52.7570,-0.049,-0.428,-0.888,-0.03,-0.08,-0.1,0.09,0.06,-0.04
2022-12-29 8:20:52.7670,-0.045,-0.432,-0.89,-0.07,-0.05,-0.1,0.08,0.06,-0.04
2022-12-29 8:20:52.7770,-0.043,-0.435,-0.892,-0.1,-0.02,-0.07,0.06,0.06,-0.04
2022-12-29 8:20:52.7870,-0.042,-0.438,-0.891,-0.09,0.0,-0.07,0.02,0.04,-0.04
2022-12-29 8:20:52.7970,-0.04,-0.44,-0.891,-0.11,0.03,-0.09,-0.01,0.02,-0.02
2022-12-29 8:20:52.8070,-0.038,-0.439,-0.895,-0.13,0.04,-0.05,-0.03,-0.0,-0.01
2022-12-29 8:20:52.8170,-0.037,-0.434,-0.896,-0.15,0.0,-0.03,-0.05,-0.02,-0.01
2022-12-29 8:20:52.8270,-0.041,-0.43,-0.895,-0.13,-0.05,-0.04,-0.06,-0.03,-0.0
2022-12-29 8:20:52.8370,-0.045,-0.429,-0.896,-0.09,-0.06,-0.04,-0.06,-0.03,-0.01
2022-12-29 8:20:52.8470,-0.049,-0.427,-0.894,-0.05,-0.07,-0.04,-0.05,-0.02,-0.01
2022-12-29 8:20:52.8570,-0.052,-0.428,-0.892,-0.02,-0.07,-0.08,-0.04,-0.01,-0.01
2022-12-29 8:20:52.8670,-0.054,-0.429,-0.891,0.01,-0.05,-0.09,-0.03,-0.0,-0.01
2022-12-29 8:20:52.8770,-0.054,-0.43,-0.892,0.02,-0.04,-0.09,-0.02,0.02,-0.0
2022-12-29 8:20:52.8870,-0.057,-0.431,-0.896,0.04,-0.03,-0.05,-0.01,0.02,0.0
2022-12-29 8:20:52.8970,-0.054,-0.43,-0.891,0.04,-0.03,-0.07,-0.0,0.03,0.01
2022-12-29 8:20:52.9070,-0.053,-0.428,-0.891,0.02,-0.04,-0.11,0.01,0.04,0.01
2022-12-29 8:20:52.9170,-0.052,-0.424,-0.899,0.02,-0.07,-0.05,0.02,0.04,-0.0
2022-12-29 8:20:52.9270,-0.05,-0.419,-0.903,0.01,-0.13,0.01,0.01,0.03,-0.01
2022-12-29 8:20:52.9360,-0.05,-0.419,-0.901,-0.01,-0.15,0.02,-0.01,0.02,-0.02
2022-12-29 8:20:52.9470,-0.051,-0.425,-0.898,0.0,-0.1,-0.02,-0.02,0.01,-0.02
2022-12-29 8:20:52.9560,-0.053,-0.433,-0.897,0.03,-0.02,-0.03,-0.02,0.02,-0.01
2022-12-29 8:20:52.9670,-0.05,-0.43,-0.898,0.02,0.0,-0.04,-0.0,0.01,-0.0
2022-12-29 8:20:52.9760,-0.049,-0.425,-0.898,-0.01,-0.06,-0.02,0.0,0.01,-0.0
2022-12-29 8:20:52.9870,-0.051,-0.426,-0.893,0.01,-0.08,-0.06,-0.0,0.01,-0.0
2022-12-29 8:20:52.9960,-0.052,-0.43,-0.888,0.02,-0.05,-0.11,-0.02,0.01,-0.01
2022-12-29 8:20:53.0060,-0.054,-0.436,-0.889,0.05,0.02,-0.14,-0.03,0.03,-0.01
2022-12-29 8:20:53.0160,-0.055,-0.439,-0.895,0.06,0.07,-0.08,-0.03,0.05,-0.0
2022-12-29 8:20:53.0260,-0.048,-0.429,-0.902,0.03,0.02,-0.02,-0.02,0.05,-0.0
2022-12-29 8:20:53.0360,-0.042,-0.417,-0.901,-0.04,-0.1,0.02,-0.01,0.03,-0.01
2022-12-29 8:20:53.0460,-0.04,-0.415,-0.89,-0.07,-0.17,-0.08,-0.02,0.02,-0.01
2022-12-29 8:20:53.0560,-0.041,-0.419,-0.891,-0.07,-0.14,-0.12,-0.03,0.02,-0.02
2022-12-29 8:20:53.0660,-0.043,-0.424,-0.896,-0.05,-0.08,-0.08,-0.04,0.02,-0.02
2022-12-29 8:20:53.0760,-0.046,-0.425,-0.901,-0.01,-0.05,-0.02,-0.04,0.02,-0.02
2022-12-29 8:20:53.0860,-0.047,-0.425,-0.902,0.0,-0.05,0.0,-0.02,0.03,-0.01
2022-12-29 8:20:53.0960,-0.045,-0.424,-0.898,0.0,-0.06,-0.03,0.02,0.05,-0.01
2022-12-29 8:20:53.1060,-0.041,-0.424,-0.895,-0.03,-0.07,-0.07,0.04,0.05,-0.01
2022-12-29 8:20:53.1160,-0.043,-0.424,-0.895,-0.03,-0.07,-0.07,0.04,0.06,-0.02
2022-12-29 8:20:53.1260,-0.051,-0.426,-0.899,0.02,-0.06,-0.04,0.01,0.07,-0.03
2022-12-29 8:20:53.1360,-0.049,-0.425,-0.904,0.08,-0.05,0.0,-0.02,0.07,-0.04
2022-12-29 8:20:53.1460,-0.048,-0.422,-0.908,0.06,-0.07,0.04,-0.04,0.05,-0.04
2022-12-29 8:20:53.1560,-0.029,-0.416,-0.914,-0.05,-0.12,0.09,-0.07,0.03,-0.05
2022-12-29 8:20:53.1660,-0.027,-0.417,-0.903,-0.17,-0.13,0.06,-0.07,0.01,-0.05
2022-12-29 8:20:53.1760,-0.036,-0.416,-0.89,-0.08,-0.11,-0.1,-0.05,0.01,-0.04
2022-12-29 8:20:53.1860,-0.037,-0.421,-0.892,-0.04,-0.1,-0.14,-0.03,0.02,-0.03
2022-12-29 8:20:53.1960,-0.035,-0.428,-0.901,-0.06,-0.02,-0.06,-0.01,0.03,-0.02
2022-12-29 8:20:53.2060,-0.039,-0.43,-0.906,-0.04,0.01,0.02,0.01,0.02,-0.01
2022-12-29 8:20:53.2150,-0.042,-0.431,-0.899,0.01,0.02,-0.01,0.04,0.03,-0.0
2022-12-29 8:20:53.2260,-0.039,-0.431,-0.891,0.0,0.02,-0.1,0.06,0.05,0.01
2022-12-29 8:20:53.2350,-0.038,-0.43,-0.885,-0.02,0.01,-0.16,0.08,0.07,0.01
2022-12-29 8:20:53.2450,-0.04,-0.427,-0.885,0.01,-0.02,-0.18,0.08,0.09,0.01
2022-12-29 8:20:53.2550,-0.039,-0.423,-0.892,0.02,-0.05,-0.14,0.06,0.09,-0.0
2022-12-29 8:20:53.2650,-0.037,-0.419,-0.901,0.01,-0.11,-0.04,0.04,0.08,-0.02
2022-12-29 8:20:53.2750,-0.037,-0.419,-0.904,0.01,-0.12,0.01,0.01,0.06,-0.02
2022-12-29 8:20:53.2850,-0.035,-0.42,-0.905,0.0,-0.12,0.03,-0.0,0.02,-0.02
2022-12-29 8:20:53.2950,-0.036,-0.426,-0.903,0.0,-0.08,0.02,-0.0,0.01,-0.01
2022-12-29 8:20:53.3050,-0.035,-0.43,-0.899,0.0,-0.02,-0.03,0.01,0.0,-0.01
2022-12-29 8:20:53.3150,-0.034,-0.433,-0.901,-0.01,0.0,-0.02,0.02,0.0,-0.0
2022-12-29 8:20:53.3250,-0.033,-0.434,-0.904,-0.02,0.02,0.01,0.03,0.0,0.0
2022-12-29 8:20:53.3350,-0.035,-0.436,-0.903,-0.02,0.04,0.01,0.02,-0.0,0.01
2022-12-29 8:20:53.3450,-0.037,-0.436,-0.898,0.0,0.04,-0.01,0.0,-0.01,0.01
2022-12-29 8:20:53.3550,-0.038,-0.435,-0.891,0.02,0.04,-0.09,-0.01,-0.01,0.02
2022-12-29 8:20:53.3650,-0.038,-0.431,-0.887,0.02,0.02,-0.14,-0.03,0.0,0.01
2022-12-29 8:20:53.3750,-0.037,-0.425,-0.887,0.01,-0.04,-0.15,-0.04,0.01,0.01
2022-12-29 8:20:53.3850,-0.037,-0.422,-0.893,0.01,-0.08,-0.12,-0.05,0.02,0.02
2022-12-29 8:20:53.3950,-0.035,-0.422,-0.898,0.0,-0.08,-0.06,-0.04,0.02,0.02
2022-12-29 8:20:53.4050,-0.034,-0.423,-0.9,-0.01,-0.06,-0.03,-0.04,0.03,0.03
2022-12-29 8:20:53.4150,-0.033,-0.423,-0.899,-0.02,-0.06,-0.04,-0.03,0.03,0.04
2022-12-29 8:20:53.4250,-0.033,-0.424,-0.899,-0.02,-0.05,-0.05,-0.03,0.04,0.04
2022-12-29 8:20:53.4350,-0.036,-0.43,-0.897,0.0,-0.01,-0.05,-0.04,0.03,0.05
2022-12-29 8:20:53.4450,-0.042,-0.433,-0.89,0.05,0.04,-0.1,-0.06,0.04,0.05
2022-12-29 8:20:53.4540,-0.047,-0.432,-0.882,0.1,0.06,-0.19,-0.08,0.05,0.04
2022-12-29 8:20:53.4650,-0.06,-0.43,-0.876,0.21,0.05,-0.26,-0.09,0.07,0.05
2022-12-29 8:20:53.4740,-0.037,-0.419,-0.881,0.16,-0.01,-0.27,-0.1,0.1,0.03
2022-12-29 8:20:53.4850,-0.031,-0.41,-0.886,-0.05,-0.11,-0.19,-0.11,0.11,0.01
2022-12-29 8:20:53.4940,-0.029,-0.395,-0.889,0.03,-0.21,-0.2,-0.11,0.11,0.0
2022-12-29 8:20:53.5040,-0.014,-0.389,-0.896,-0.13,-0.34,-0.13,-0.11,0.12,-0.0
2022-12-29 8:20:53.5140,-0.014,-0.4,-0.898,-0.15,-0.25,-0.1,-0.11,0.11,-0.01
2022-12-29 8:20:53.5240,-0.01,-0.406,-0.907,-0.16,-0.16,-0.05,-0.1,0.1,-0.0
2022-12-29 8:20:53.5340,-0.006,-0.411,-0.914,-0.21,-0.11,0.04,-0.08,0.08,0.01
2022-12-29 8:20:53.5440,-0.008,-0.417,-0.918,-0.2,-0.04,0.09,-0.04,0.07,0.03
2022-12-29 8:20:53.5540,-0.008,-0.419,-0.92,-0.19,0.0,0.11,-0.0,0.05,0.03
2022-12-29 8:20:53.5640,-0.014,-0.422,-0.916,-0.15,0.02,0.1,0.03,0.05,0.03
2022-12-29 8:20:53.5740,-0.024,-0.422,-0.909,-0.06,0.03,0.03,0.04,0.06,0.01
2022-12-29 8:20:53.5840,-0.032,-0.42,-0.907,0.03,0.01,-0.01,0.05,0.07,0.0
2022-12-29 8:20:53.5940,-0.037,-0.422,-0.913,0.1,0.01,0.02,0.04,0.06,-0.01
2022-12-29 8:20:53.6040,-0.032,-0.419,-0.921,0.1,0.0,0.1,0.03,0.06,-0.02
2022-12-29 8:20:53.6140,-0.025,-0.411,-0.924,0.04,-0.07,0.15,0.02,0.04,-0.03
2022-12-29 8:20:53.6240,-0.018,-0.404,-0.926,-0.02,-0.14,0.17,0.02,0.02,-0.02
2022-12-29 8:20:53.6340,-0.012,-0.401,-0.929,-0.1,-0.19,0.21,0.03,-0.01,-0.01
2022-12-29 8:20:53.6440,-0.01,-0.4,-0.928,-0.12,-0.2,0.2,0.04,-0.04,-0.01
2022-12-29 8:20:53.6540,-0.011,-0.402,-0.927,-0.13,-0.2,0.2,0.05,-0.06,-0.02
2022-12-29 8:20:53.6640,-0.017,-0.406,-0.921,-0.09,-0.18,0.16,0.06,-0.06,-0.02
2022-12-29 8:20:53.6740,-0.027,-0.411,-0.914,-0.01,-0.14,0.09,0.08,-0.04,-0.04
2022-12-29 8:20:53.6840,-0.029,-0.416,-0.909,0.05,-0.09,0.04,0.11,-0.01,-0.04
2022-12-29 8:20:53.6940,-0.019,-0.419,-0.904,-0.01,-0.06,0.0,0.15,-0.0,-0.03
2022-12-29 8:20:53.7040,-0.012,-0.417,-0.896,-0.1,-0.08,-0.06,0.17,-0.02,-0.02
2022-12-29 8:20:53.7140,-0.013,-0.414,-0.889,-0.13,-0.12,-0.13,0.16,-0.05,-0.02
2022-12-29 8:20:53.7240,-0.025,-0.411,-0.889,-0.05,-0.17,-0.15,0.1,-0.08,-0.05
2022-12-29 8:20:53.7340,-0.033,-0.415,-0.893,0.06,-0.16,-0.13,0.03,-0.07,-0.08
2022-12-29 8:20:53.7440,-0.031,-0.425,-0.898,0.07,-0.08,-0.07,-0.0,-0.07,-0.11
2022-12-29 8:20:53.7530,-0.032,-0.433,-0.9,0.06,0.03,-0.04,-0.0,-0.08,-0.09
2022-12-29 8:20:53.7630,-0.031,-0.43,-0.897,0.06,0.03,-0.06,0.02,-0.08,-0.06
2022-12-29 8:20:53.7730,-0.031,-0.427,-0.898,0.04,-0.01,-0.06,0.05,-0.07,-0.05
2022-12-29 8:20:53.7830,-0.038,-0.427,-0.898,0.09,-0.02,-0.06,0.07,-0.05,-0.04
2022-12-29 8:20:53.7930,-0.038,-0.42,-0.898,0.12,-0.07,-0.05,0.09,-0.02,-0.05
2022-12-29 8:20:53.8030,-0.038,-0.42,-0.897,0.11,-0.12,-0.05,0.09,-0.02,-0.06
2022-12-29 8:20:53.8130,-0.041,-0.427,-0.891,0.15,-0.08,-0.08,0.09,0.01,-0.06
2022-12-29 8:20:53.8230,-0.036,-0.433,-0.883,0.13,-0.01,-0.16,0.11,0.05,-0.05
2022-12-29 8:20:53.8330,-0.031,-0.432,-0.876,0.08,-0.01,-0.22,0.13,0.09,-0.05
2022-12-29 8:20:53.8430,-0.026,-0.43,-0.873,0.05,-0.05,-0.27,0.15,0.12,-0.04
2022-12-29 8:20:53.8530,-0.021,-0.43,-0.874,0.01,-0.06,-0.26,0.14,0.13,-0.04
2022-12-29 8:20:53.8630,-0.018,-0.434,-0.871,-0.01,-0.05,-0.27,0.13,0.15,-0.04
2022-12-29 8:20:53.8730,-0.014,-0.44,-0.873,-0.04,-0.01,-0.28,0.11,0.15,-0.05
2022-12-29 8:20:53.8830,-0.007,-0.447,-0.881,-0.07,0.06,-0.21,0.08,0.15,-0.04
2022-12-29 8:20:53.8930,-0.001,-0.445,-0.888,-0.14,0.07,-0.13,0.06,0.12,-0.03
2022-12-29 8:20:53.9030,0.0,-0.44,-0.889,-0.15,0.01,-0.1,0.02,0.07,-0.02
2022-12-29 8:20:53.9130,0.002,-0.442,-0.888,-0.16,0.01,-0.1,-0.03,0.03,-0.03
2022-12-29 8:20:53.9230,0.003,-0.448,-0.882,-0.17,0.07,-0.14,-0.07,0.02,-0.02
2022-12-29 8:20:53.9330,0.001,-0.448,-0.879,-0.17,0.1,-0.19,-0.1,0.01,-0.02
2022-12-29 8:20:53.9430,-0.006,-0.444,-0.876,-0.12,0.08,-0.22,-0.11,0.0,-0.01
2022-12-29 8:20:53.9530,-0.012,-0.441,-0.877,-0.04,0.05,-0.24,-0.12,0.02,-0.0
2022-12-29 8:20:53.9630,-0.014,-0.44,-0.884,-0.01,0.05,-0.19,-0.13,0.03,0.0
2022-12-29 8:20:53.9720,-0.012,-0.437,-0.887,-0.01,0.04,-0.15,-0.13,0.04,0.0
2022-12-29 8:20:53.9830,-0.009,-0.435,-0.887,-0.04,0.03,-0.15,-0.13,0.05,0.01
2022-12-29 8:20:53.9930,-0.011,-0.435,-0.888,-0.02,0.03,-0.15,-0.12,0.08,0.0
2022-12-29 8:20:54.0020,-0.012,-0.434,-0.895,0.0,0.04,-0.11,-0.11,0.1,-0.0
2022-12-29 8:20:54.0120,-0.015,-0.432,-0.901,0.03,0.03,-0.04,-0.09,0.1,0.0
2022-12-29 8:20:54.0220,-0.013,-0.427,-0.903,0.05,0.0,-0.01,-0.06,0.11,0.02
2022-12-29 8:20:54.0320,-0.005,-0.419,-0.905,-0.02,-0.08,0.0,-0.02,0.11,0.03
2022-12-29 8:20:54.0420,-0.0,-0.413,-0.908,-0.06,-0.14,0.03,0.01,0.1,0.03
2022-12-29 8:20:54.0520,0.01,-0.41,-0.912,-0.13,-0.19,0.07,0.03,0.1,0.03
2022-12-29 8:20:54.0620,0.013,-0.413,-0.918,-0.2,-0.19,0.12,0.03,0.08,0.03
2022-12-29 8:20:54.0720,0.004,-0.421,-0.916,-0.13,-0.12,0.14,0.01,0.07,0.03
2022-12-29 8:20:54.0820,-0.002,-0.425,-0.904,-0.05,-0.05,0.05,-0.0,0.06,0.04
2022-12-29 8:20:54.0920,-0.001,-0.424,-0.89,-0.03,-0.05,-0.09,-0.02,0.06,0.05
2022-12-29 8:20:54.1020,0.0,-0.425,-0.884,-0.05,-0.05,-0.19,-0.03,0.06,0.06
2022-12-29 8:20:54.1120,-0.0,-0.427,-0.893,-0.05,-0.03,-0.16,-0.04,0.05,0.05
2022-12-29 8:20:54.1220,-0.0,-0.431,-0.908,-0.04,0.01,-0.02,-0.06,0.06,0.05
2022-12-29 8:20:54.1320,0.001,-0.432,-0.92,-0.05,0.04,0.11,-0.06,0.05,0.06
2022-12-29 8:20:54.1420,0.0,-0.43,-0.927,-0.05,0.04,0.21,-0.05,0.04,0.07
2022-12-29 8:20:54.1520,0.001,-0.427,-0.921,-0.04,0.01,0.18,-0.01,0.05,0.08
2022-12-29 8:20:54.1620,-0.003,-0.42,-0.916,-0.03,-0.04,0.13,0.03,0.04,0.09
2022-12-29 8:20:54.1720,-0.005,-0.409,-0.905,0.0,-0.14,0.05,0.05,0.04,0.1
2022-12-29 8:20:54.1820,-0.006,-0.406,-0.896,0.02,-0.22,-0.07,0.07,0.04,0.1
2022-12-29 8:20:54.1920,0.001,-0.417,-0.9,-0.01,-0.16,-0.06,0.09,0.05,0.08
2022-12-29 8:20:54.2020,0.008,-0.417,-0.912,-0.1,-0.1,0.03,0.07,0.04,0.05
2022-12-29 8:20:54.2120,-0.002,-0.408,-0.912,-0.06,-0.19,0.11,0.04,0.02,0.02
2022-12-29 8:20:54.2220,-0.012,-0.406,-0.905,0.06,-0.24,0.02,0.02,0.01,-0.0
2022-12-29 8:20:54.2320,-0.016,-0.414,-0.912,0.11,-0.19,0.05,-0.0,0.01,-0.02
2022-12-29 8:20:54.2420,-0.021,-0.419,-0.91,0.16,-0.11,0.09,-0.0,0.01,-0.02
2022-12-29 8:20:54.2510,-0.021,-0.416,-0.9,0.19,-0.12,0.0,0.01,-0.0,-0.01
2022-12-29 8:20:54.2620,-0.015,-0.417,-0.889,0.12,-0.14,-0.09,0.02,-0.0,-0.0
2022-12-29 8:20:54.2710,-0.007,-0.421,-0.891,0.09,-0.09,-0.17,0.04,-0.01,-0.01
2022-12-29 8:20:54.2810,-0.006,-0.42,-0.904,0.0,-0.1,-0.03,0.02,-0.03,-0.03
2022-12-29 8:20:54.2910,-0.024,-0.419,-0.91,0.12,-0.08,0.05,0.0,-0.01,-0.06
2022-12-29 8:20:54.3010,-0.056,-0.399,-0.912,0.46,-0.24,0.09,-0.03,-0.0,-0.11
2022-12-29 8:20:54.3110,-0.017,-0.416,-0.901,0.36,-0.25,0.02,-0.01,0.05,-0.13
2022-12-29 8:20:54.3210,0.018,-0.437,-0.894,-0.12,0.02,-0.07,0.05,0.06,-0.12
2022-12-29 8:20:54.3310,0.008,-0.433,-0.888,-0.12,0.07,-0.13,0.1,0.07,-0.09
2022-12-29 8:20:54.3410,0.011,-0.416,-0.892,-0.06,-0.1,-0.13,0.14,0.08,-0.08
2022-12-29 8:20:54.3510,0.018,-0.412,-0.9,-0.13,-0.21,-0.05,0.15,0.08,-0.09
2022-12-29 8:20:54.3610,0.022,-0.418,-0.904,-0.17,-0.19,0.02,0.13,0.09,-0.11
2022-12-29 8:20:54.3720,0.026,-0.426,-0.895,-0.19,-0.12,-0.01,0.12,0.1,-0.12
2022-12-29 8:20:54.3810,0.033,-0.435,-0.885,-0.24,-0.05,-0.13,0.11,0.12,-0.11
2022-12-29 8:20:54.3910,0.037,-0.442,-0.879,-0.28,0.02,-0.19,0.12,0.13,-0.09
2022-12-29 8:20:54.4010,0.039,-0.448,-0.878,-0.29,0.08,-0.21,0.13,0.13,-0.06
2022-12-29 8:20:54.4110,0.038,-0.448,-0.884,-0.28,0.08,-0.18,0.12,0.12,-0.04
2022-12-29 8:20:54.4210,0.039,-0.448,-0.889,-0.26,0.07,-0.1,0.09,0.07,-0.03
2022-12-29 8:20:54.4310,0.042,-0.453,-0.883,-0.29,0.1,-0.12,0.04,0.04,-0.01
2022-12-29 8:20:54.4410,0.041,-0.459,-0.878,-0.29,0.16,-0.19,-0.01,0.01,0.01
2022-12-29 8:20:54.4510,0.039,-0.46,-0.88,-0.27,0.2,-0.2,-0.06,-0.02,0.03
2022-12-29 8:20:54.4610,0.036,-0.456,-0.889,-0.26,0.18,-0.13,-0.11,-0.07,0.05
2022-12-29 8:20:54.4710,0.031,-0.45,-0.896,-0.22,0.15,-0.06,-0.16,-0.11,0.05
2022-12-29 8:20:54.4810,0.024,-0.444,-0.904,-0.18,0.1,0.0,-0.2,-0.13,0.06
2022-12-29 8:20:54.4910,0.015,-0.439,-0.912,-0.1,0.06,0.07,-0.22,-0.16,0.06
2022-12-29 8:20:54.5010,0.01,-0.436,-0.924,-0.06,0.04,0.17,-0.24,-0.24,0.06
2022-12-29 8:20:54.5110,0.001,-0.43,-0.929,-0.02,0.04,0.23,-0.28,-0.32,0.05
2022-12-29 8:20:54.5210,-0.009,-0.414,-0.914,0.05,-0.07,0.18,-0.29,-0.27,0.09
2022-12-29 8:20:54.5300,-0.02,-0.416,-0.9,0.15,-0.11,-0.02,-0.22,-0.27,0.11
2022-12-29 8:20:54.5410,-0.014,-0.414,-0.892,0.13,-0.08,-0.11,-0.13,-0.25,0.1
2022-12-29 8:20:54.5500,-0.021,-0.408,-0.891,0.09,-0.12,-0.16,-0.06,-0.21,0.09
2022-12-29 8:20:54.5600,-0.035,-0.401,-0.898,0.22,-0.19,-0.13,-0.02,-0.15,0.08
2022-12-29 8:20:54.5700,-0.045,-0.401,-0.915,0.32,-0.22,0.02,0.01,-0.14,0.06
2022-12-29 8:20:54.5800,-0.053,-0.405,-0.922,0.38,-0.2,0.15,0.03,-0.15,0.05
2022-12-29 8:20:54.5900,-0.056,-0.408,-0.917,0.43,-0.16,0.13,0.03,-0.13,0.04
2022-12-29 8:20:54.6000,-0.053,-0.412,-0.91,0.4,-0.13,0.06,0.03,-0.11,0.03
2022-12-29 8:20:54.6100,-0.05,-0.415,-0.907,0.35,-0.1,0.01,0.04,-0.09,0.01
2022-12-29 8:20:54.6210,-0.047,-0.417,-0.902,0.32,-0.08,-0.02,0.06,-0.06,0.0
2022-12-29 8:20:54.6300,-0.044,-0.417,-0.899,0.29,-0.08,-0.06,0.09,-0.03,-0.01
2022-12-29 8:20:54.6400,-0.037,-0.415,-0.895,0.24,-0.1,-0.09,0.12,-0.01,-0.02
2022-12-29 8:20:54.6500,-0.03,-0.411,-0.891,0.16,-0.14,-0.12,0.15,0.02,-0.03
2022-12-29 8:20:54.6600,-0.023,-0.41,-0.885,0.1,-0.18,-0.17,0.15,0.05,-0.05
2022-12-29 8:20:54.6700,-0.017,-0.414,-0.883,0.04,-0.18,-0.19,0.15,0.06,-0.05
2022-12-29 8:20:54.6800,-0.01,-0.421,-0.877,-0.01,-0.13,-0.22,0.14,0.09,-0.04
2022-12-29 8:20:54.6900,0.002,-0.421,-0.87,-0.1,-0.11,-0.3,0.13,0.12,-0.02
2022-12-29 8:20:54.7000,0.01,-0.425,-0.867,-0.2,-0.1,-0.33,0.13,0.15,-0.01
2022-12-29 8:20:54.7100,0.014,-0.43,-0.869,-0.22,-0.06,-0.33,0.14,0.16,0.0
2022-12-29 8:20:54.7200,0.022,-0.431,-0.88,-0.27,-0.05,-0.25,0.13,0.18,0.01
2022-12-29 8:20:54.7300,0.028,-0.434,-0.89,-0.33,-0.04,-0.14,0.1,0.19,-0.0
2022-12-29 8:20:54.7400,0.033,-0.436,-0.903,-0.37,-0.02,-0.01,0.06,0.18,-0.02
2022-12-29 8:20:54.7500,0.03,-0.438,-0.898,-0.35,0.0,0.01,0.04,0.18,-0.03
2022-12-29 8:20:54.7600,0.032,-0.439,-0.891,-0.33,0.0,-0.07,0.04,0.18,-0.02
2022-12-29 8:20:54.7690,0.035,-0.438,-0.894,-0.34,0.01,-0.09,0.05,0.18,-0.01
2022-12-29 8:20:54.7800,0.038,-0.427,-0.907,-0.35,-0.07,0.03,0.03,0.15,-0.0
2022-12-29 8:20:54.7890,0.041,-0.424,-0.909,-0.37,-0.15,0.1,0.01,0.12,0.0
2022-12-29 8:20:54.8000,0.04,-0.432,-0.907,-0.38,-0.1,0.08,0.01,0.07,-0.01
2022-12-29 8:20:54.8090,0.033,-0.44,-0.904,-0.32,-0.01,0.06,-0.0,0.04,-0.0
2022-12-29 8:20:54.8200,0.025,-0.443,-0.902,-0.24,0.04,0.03,-0.02,0.02,0.0
2022-12-29 8:20:54.8290,0.016,-0.441,-0.901,-0.15,0.04,0.01,-0.04,0.0,-0.0
2022-12-29 8:20:54.8390,0.009,-0.438,-0.898,-0.07,0.02,0.0,-0.05,-0.01,-0.0
2022-12-29 8:20:54.8490,0.003,-0.436,-0.892,-0.02,0.0,-0.05,-0.05,-0.02,-0.0
2022-12-29 8:20:54.8590,-0.003,-0.433,-0.883,0.05,-0.03,-0.14,-0.04,-0.01,-0.01
2022-12-29 8:20:54.8690,-0.008,-0.433,-0.879,0.11,-0.03,-0.21,-0.03,0.01,-0.02
2022-12-29 8:20:54.8790,-0.011,-0.43,-0.879,0.15,-0.05,-0.21,-0.03,0.03,-0.03
2022-12-29 8:20:54.8890,-0.009,-0.425,-0.883,0.16,-0.09,-0.2,-0.03,0.02,-0.04
2022-12-29 8:20:54.8990,-0.01,-0.426,-0.894,0.15,-0.11,-0.1,-0.04,0.02,-0.05
2022-12-29 8:20:54.9090,-0.009,-0.429,-0.897,0.17,-0.07,-0.05,-0.04,0.02,-0.08
2022-12-29 8:20:54.9190,-0.008,-0.429,-0.899,0.15,-0.06,-0.04,-0.04,0.02,-0.08
2022-12-29 8:20:54.9290,-0.006,-0.432,-0.906,0.15,-0.03,0.02,-0.02,-0.01,-0.09
2022-12-29 8:20:54.9390,-0.004,-0.431,-0.907,0.13,-0.02,0.06,-0.02,-0.01,-0.08
2022-12-29 8:20:54.9490,-0.001,-0.43,-0.902,0.11,-0.05,0.02,0.0,0.0,-0.08
2022-12-29 8:20:54.9590,0.003,-0.43,-0.906,0.08,-0.04,0.02,0.02,-0.0,-0.08
2022-12-29 8:20:54.9690,0.003,-0.425,-0.909,0.04,-0.08,0.07,0.03,-0.0,-0.08
2022-12-29 8:20:54.9790,-0.001,-0.425,-0.906,0.09,-0.1,0.06,0.02,-0.02,-0.08
2022-12-29 8:20:54.9890,-0.001,-0.426,-0.902,0.09,-0.1,0.02,0.02,-0.02,-0.07
2022-12-29 8:20:54.9990,-0.005,-0.431,-0.899,0.13,-0.05,-0.02,0.02,-0.02,-0.06
2022-12-29 8:20:55.0080,-0.003,-0.433,-0.902,0.13,-0.02,0.0,0.03,-0.02,-0.05
2022-12-29 8:20:55.0190,0.0,-0.432,-0.902,0.1,-0.03,0.02,0.04,-0.03,-0.04
2022-12-29 8:20:55.0290,0.002,-0.431,-0.901,0.07,-0.04,0.0,0.04,-0.03,-0.04
2022-12-29 8:20:55.0380,0.004,-0.431,-0.901,0.06,-0.05,0.0,0.05,-0.02,-0.04
2022-12-29 8:20:55.0480,0.009,-0.43,-0.9,0.01,-0.07,0.0,0.05,-0.01,-0.05
2022-12-29 8:20:55.0590,0.005,-0.433,-0.898,0.02,-0.05,-0.01,0.05,-0.01,-0.05
2022-12-29 8:20:55.0680,0.004,-0.432,-0.898,0.05,-0.04,-0.02,0.06,-0.01,-0.04
2022-12-29 8:20:55.0780,0.007,-0.433,-0.891,0.04,-0.06,-0.05,0.05,-0.0,-0.03
2022-12-29 8:20:55.0880,0.013,-0.432,-0.887,-0.01,-0.05,-0.12,0.06,0.02,-0.03
2022-12-29 8:20:55.0980,0.021,-0.431,-0.89,-0.09,-0.08,-0.11,0.06,0.03,-0.02
2022-12-29 8:20:55.1080,0.027,-0.431,-0.894,-0.14,-0.09,-0.06,0.06,0.02,-0.02
2022-12-29 8:20:55.1180,0.032,-0.431,-0.898,-0.21,-0.09,-0.02,0.06,0.01,-0.02
2022-12-29 8:20:55.1280,0.03,-0.433,-0.896,-0.2,-0.08,-0.02,0.04,0.0,-0.01
2022-12-29 8:20:55.1380,0.029,-0.434,-0.894,-0.19,-0.07,-0.04,0.03,-0.0,-0.01
2022-12-29 8:20:55.1480,0.025,-0.438,-0.888,-0.17,-0.04,-0.07,0.01,-0.01,-0.01
2022-12-29 8:20:55.1580,0.02,-0.438,-0.885,-0.12,-0.02,-0.13,-0.01,-0.01,-0.01
2022-12-29 8:20:55.1680,0.014,-0.439,-0.887,-0.06,-0.02,-0.12,-0.02,-0.01,0.0
2022-12-29 8:20:55.1780,0.01,-0.442,-0.889,-0.01,0.01,-0.11,-0.03,-0.02,0.01
2022-12-29 8:20:55.1880,0.01,-0.443,-0.89,0.0,0.03,-0.09,-0.03,-0.01,0.01
2022-12-29 8:20:55.1980,0.009,-0.444,-0.887,0.01,0.04,-0.11,-0.02,-0.0,0.02
2022-12-29 8:20:55.2080,0.011,-0.443,-0.883,0.0,0.04,-0.15,-0.01,0.02,0.03
2022-12-29 8:20:55.2180,0.013,-0.443,-0.883,-0.02,0.04,-0.17,0.01,0.04,0.04
2022-12-29 8:20:55.2280,0.013,-0.439,-0.885,-0.02,0.02,-0.15,0.03,0.05,0.03
2022-12-29 8:20:55.2380,0.012,-0.428,-0.894,-0.01,-0.07,-0.1,0.04,0.03,0.02
2022-12-29 8:20:55.2480,0.014,-0.425,-0.913,-0.02,-0.15,0.07,0.02,-0.03,-0.0
2022-12-29 8:20:55.2580,0.016,-0.428,-0.925,-0.04,-0.13,0.22,-0.02,-0.1,-0.01
2022-12-29 8:20:55.2680,0.021,-0.437,-0.914,-0.1,-0.07,0.21,-0.05,-0.15,0.0
2022-12-29 8:20:55.2780,0.022,-0.443,-0.901,-0.13,0.03,0.05,-0.06,-0.18,0.02
2022-12-29 8:20:55.2880,0.023,-0.441,-0.898,-0.17,0.04,0.0,-0.07,-0.19,0.02
2022-12-29 8:20:55.2980,0.014,-0.436,-0.893,-0.14,0.0,-0.05,-0.07,-0.19,0.03
2022-12-29 8:20:55.3080,0.01,-0.432,-0.89,-0.07,-0.04,-0.1,-0.05,-0.18,0.02
2022-12-29 8:20:55.3180,0.014,-0.428,-0.891,-0.12,-0.07,-0.1,-0.04,-0.15,0.02
2022-12-29 8:20:55.3270,0.009,-0.427,-0.889,-0.11,-0.09,-0.1,-0.02,-0.1,0.01
2022-12-29 8:20:55.3380,0.006,-0.428,-0.887,-0.07,-0.08,-0.12,-0.0,-0.07,0.02
2022-12-29 8:20:55.3470,0.003,-0.43,-0.88,-0.05,-0.07,-0.17,0.02,-0.03,0.02
2022-12-29 8:20:55.3570,0.003,-0.433,-0.877,-0.03,-0.05,-0.23,0.03,0.02,0.02
2022-12-29 8:20:55.3670,0.006,-0.429,-0.878,-0.04,-0.05,-0.23,0.03,0.08,0.02
2022-12-29 8:20:55.3770,0.008,-0.422,-0.883,-0.07,-0.12,-0.19,0.03,0.11,0.02
2022-12-29 8:20:55.3870,0.005,-0.415,-0.887,-0.04,-0.2,-0.14,0.03,0.12,0.01
2022-12-29 8:20:55.3970,-0.001,-0.415,-0.885,0.02,-0.23,-0.13,0.02,0.14,-0.0
2022-12-29 8:20:55.4070,-0.007,-0.421,-0.883,0.1,-0.19,-0.15,0.03,0.17,-0.01
2022-12-29 8:20:55.4170,-0.008,-0.427,-0.882,0.14,-0.13,-0.17,0.03,0.2,-0.0
2022-12-29 8:20:55.4270,-0.003,-0.43,-0.885,0.14,-0.09,-0.17,0.05,0.22,-0.01
2022-12-29 8:20:55.4370,0.003,-0.427,-0.898,0.1,-0.1,-0.06,0.06,0.23,-0.02
2022-12-29 8:20:55.4470,0.007,-0.427,-0.91,0.07,-0.13,0.06,0.06,0.22,-0.03
2022-12-29 8:20:55.4570,0.013,-0.43,-0.92,0.05,-0.11,0.18,0.06,0.2,-0.04
2022-12-29 8:20:55.4670,0.018,-0.436,-0.924,0.0,-0.07,0.24,0.06,0.17,-0.06
2022-12-29 8:20:55.4770,0.018,-0.44,-0.92,0.0,-0.02,0.23,0.06,0.14,-0.06
2022-12-29 8:20:55.4870,0.022,-0.444,-0.913,0.0,0.01,0.18,0.06,0.1,-0.06
2022-12-29 8:20:55.4970,0.024,-0.446,-0.905,-0.03,0.04,0.1,0.06,0.07,-0.06
2022-12-29 8:20:55.5070,0.024,-0.448,-0.899,-0.03,0.04,0.04,0.07,0.04,-0.05
2022-12-29 8:20:55.5170,0.024,-0.45,-0.898,-0.03,0.06,0.01,0.06,-0.0,-0.03
2022-12-29 8:20:55.5270,0.025,-0.452,-0.899,-0.04,0.08,0.01,0.06,-0.05,-0.01
2022-12-29 8:20:55.5370,0.023,-0.45,-0.898,-0.04,0.08,0.02,0.06,-0.11,-0.0
2022-12-29 8:20:55.5470,0.019,-0.446,-0.895,-0.02,0.04,0.0,0.03,-0.16,0.0
2022-12-29 8:20:55.5570,0.014,-0.441,-0.891,0.01,-0.01,-0.04,-0.0,-0.18,0.01
2022-12-29 8:20:55.5660,0.013,-0.441,-0.889,0.02,-0.03,-0.07,-0.03,-0.19,0.01
2022-12-29 8:20:55.5770,0.01,-0.439,-0.888,0.02,-0.03,-0.08,-0.05,-0.2,0.01
2022-12-29 8:20:55.5860,0.005,-0.434,-0.886,0.05,-0.07,-0.11,-0.06,-0.19,0.01
2022-12-29 8:20:55.5960,0.004,-0.431,-0.884,0.06,-0.1,-0.12,-0.06,-0.18,-0.0
2022-12-29 8:20:55.6060,0.001,-0.428,-0.885,0.07,-0.12,-0.14,-0.05,-0.18,-0.01
2022-12-29 8:20:55.6160,-0.002,-0.421,-0.891,0.09,-0.17,-0.09,-0.07,-0.19,-0.01
2022-12-29 8:20:55.6270,-0.004,-0.421,-0.889,0.09,-0.2,-0.08,-0.08,-0.18,-0.02
2022-12-29 8:20:55.6360,-0.001,-0.426,-0.886,0.08,-0.15,-0.12,-0.09,-0.17,-0.02
2022-12-29 8:20:55.6460,0.004,-0.426,-0.892,0.0,-0.11,-0.1,-0.11,-0.18,-0.03
2022-12-29 8:20:55.6560,-0.002,-0.426,-0.893,0.04,-0.12,-0.03,-0.12,-0.19,-0.03
2022-12-29 8:20:55.6660,0.02,-0.432,-0.869,-0.12,-0.07,-0.24,-0.11,-0.15,-0.03
2022-12-29 8:20:55.6760,0.015,-0.445,-0.88,-0.2,0.05,-0.28,-0.08,-0.13,-0.01
2022-12-29 8:20:55.6860,0.009,-0.439,-0.894,-0.11,0.09,-0.1,-0.07,-0.1,0.01
2022-12-29 8:20:55.6960,0.012,-0.431,-0.899,-0.14,-0.02,-0.04,-0.06,-0.08,0.01
2022-12-29 8:20:55.7060,0.007,-0.433,-0.898,-0.12,-0.03,-0.02,-0.06,-0.06,0.0
2022-12-29 8:20:55.7160,0.006,-0.436,-0.887,-0.09,0.02,-0.1,-0.04,-0.01,-0.0
2022-12-29 8:20:55.7260,0.008,-0.437,-0.879,-0.09,0.04,-0.21,-0.02,0.05,-0.01
2022-12-29 8:20:55.7360,0.012,-0.431,-0.881,-0.12,0.01,-0.22,0.0,0.1,-0.01
2022-12-29 8:20:55.7460,0.014,-0.428,-0.886,-0.14,-0.04,-0.18,0.01,0.12,-0.01
2022-12-29 8:20:55.7560,0.016,-0.427,-0.891,-0.14,-0.06,-0.12,0.03,0.14,-0.0
2022-12-29 8:20:55.7660,0.016,-0.428,-0.892,-0.14,-0.06,-0.1,0.05,0.17,0.0
2022-12-29 8:20:55.7760,0.016,-0.427,-0.891,-0.12,-0.07,-0.1,0.07,0.18,0.0
2022-12-29 8:20:55.7860,0.013,-0.427,-0.894,-0.09,-0.08,-0.08,0.08,0.18,-0.01
2022-12-29 8:20:55.7960,0.006,-0.431,-0.897,-0.01,-0.06,-0.05,0.07,0.19,-0.01
2022-12-29 8:20:55.8060,0.005,-0.435,-0.899,0.03,-0.02,-0.03,0.06,0.18,-0.01
2022-12-29 8:20:55.8160,0.002,-0.436,-0.903,0.08,0.0,0.01,0.05,0.16,-0.01
2022-12-29 8:20:55.8260,0.005,-0.433,-0.907,0.09,-0.02,0.05,0.04,0.11,0.0
2022-12-29 8:20:55.8360,0.008,-0.43,-0.912,0.06,-0.06,0.11,0.01,0.06,0.01
2022-12-29 8:20:55.8450,0.012,-0.432,-0.91,0.03,-0.06,0.11,-0.02,0.02,0.0
2022-12-29 8:20:55.8550,0.011,-0.433,-0.908,0.01,-0.04,0.09,-0.04,-0.0,0.0
2022-12-29 8:20:55.8650,0.011,-0.433,-0.907,0.02,-0.02,0.06,-0.05,-0.02,0.01
2022-12-29 8:20:55.8750,0.012,-0.433,-0.902,0.01,-0.03,0.04,-0.04,-0.04,0.01
2022-12-29 8:20:55.8850,0.013,-0.433,-0.898,-0.01,-0.03,-0.02,-0.02,-0.04,0.01
2022-12-29 8:20:55.8950,0.013,-0.434,-0.896,-0.01,-0.02,-0.04,0.01,-0.03,0.02
2022-12-29 8:20:55.9050,0.01,-0.432,-0.895,0.0,-0.03,-0.05,0.03,-0.02,0.02
2022-12-29 8:20:55.9150,0.009,-0.432,-0.891,0.01,-0.04,-0.08,0.03,-0.01,0.01
2022-12-29 8:20:55.9250,0.005,-0.434,-0.887,0.04,-0.03,-0.12,0.03,-0.01,0.0
2022-12-29 8:20:55.9350,0.002,-0.434,-0.884,0.08,-0.01,-0.16,0.01,-0.01,0.0
2022-12-29 8:20:55.9450,0.002,-0.432,-0.882,0.09,-0.03,-0.18,-0.01,-0.01,0.01
2022-12-29 8:20:55.9550,0.003,-0.428,-0.883,0.08,-0.05,-0.18,-0.04,-0.02,0.01
2022-12-29 8:20:55.9650,0.007,-0.422,-0.888,0.05,-0.11,-0.15,-0.05,-0.02,0.0
2022-12-29 8:20:55.9750,0.01,-0.418,-0.892,0.01,-0.16,-0.1,-0.05,-0.01,-0.01
2022-12-29 8:20:55.9850,0.01,-0.416,-0.896,0.01,-0.18,-0.07,-0.03,0.02,-0.01
2022-12-29 8:20:55.9950,0.01,-0.419,-0.901,0.02,-0.17,-0.02,0.02,0.07,-0.02
2022-12-29 8:20:56.0050,0.014,-0.424,-0.905,0.0,-0.13,0.03,0.08,0.12,-0.02
2022-12-29 8:20:56.0150,0.017,-0.429,-0.906,-0.02,-0.09,0.05,0.17,0.19,-0.02
2022-12-29 8:20:56.0250,0.022,-0.431,-0.91,-0.03,-0.08,0.08,0.24,0.23,-0.02
2022-12-29 8:20:56.0350,0.028,-0.435,-0.917,-0.08,-0.08,0.17,0.3,0.23,-0.03
2022-12-29 8:20:56.0450,0.03,-0.442,-0.919,-0.09,-0.05,0.2,0.33,0.23,-0.03
2022-12-29 8:20:56.0550,0.031,-0.448,-0.924,-0.08,0.0,0.27,0.32,0.2,-0.03
2022-12-29 8:20:56.0650,0.034,-0.45,-0.917,-0.09,0.01,0.26,0.28,0.14,-0.02
2022-12-29 8:20:56.0740,0.039,-0.45,-0.908,-0.13,0.0,0.18,0.22,0.04,-0.01
2022-12-29 8:20:56.0850,0.042,-0.451,-0.896,-0.17,-0.02,0.09,0.15,-0.04,-0.0
2022-12-29 8:20:56.0950,0.041,-0.452,-0.883,-0.18,-0.01,-0.04,0.07,-0.09,0.01
2022-12-29 8:20:56.1040,0.041,-0.45,-0.874,-0.19,-0.02,-0.14,0.02,-0.12,0.02
2022-12-29 8:20:56.1150,0.04,-0.447,-0.871,-0.2,-0.04,-0.2,-0.02,-0.15,0.03
2022-12-29 8:20:56.1240,0.036,-0.443,-0.872,-0.18,-0.08,-0.2,-0.04,-0.17,0.03
2022-12-29 8:20:56.1340,0.029,-0.442,-0.872,-0.14,-0.1,-0.2,-0.05,-0.16,0.03
2022-12-29 8:20:56.1440,0.023,-0.443,-0.874,-0.09,-0.09,-0.19,-0.04,-0.12,0.03
2022-12-29 8:20:56.1540,0.016,-0.443,-0.876,-0.03,-0.08,-0.18,-0.02,-0.08,0.03
2022-12-29 8:20:56.1640,0.013,-0.445,-0.882,0.01,-0.07,-0.13,0.02,-0.04,0.02
2022-12-29 8:20:56.1740,0.009,-0.447,-0.886,0.04,-0.05,-0.08,0.06,0.01,0.01
2022-12-29 8:20:56.1840,0.005,-0.446,-0.886,0.09,-0.05,-0.06,0.1,0.03,-0.0
2022-12-29 8:20:56.1940,0.002,-0.445,-0.885,0.14,-0.08,-0.06,0.1,0.04,-0.01
2022-12-29 8:20:56.2040,0.003,-0.445,-0.883,0.14,-0.1,-0.07,0.1,0.05,-0.01
2022-12-29 8:20:56.2140,0.004,-0.448,-0.882,0.14,-0.08,-0.08,0.07,0.04,-0.02
2022-12-29 8:20:56.2240,0.008,-0.448,-0.88,0.12,-0.07,-0.1,0.05,0.04,-0.02
2022-12-29 8:20:56.2340,0.011,-0.447,-0.878,0.08,-0.08,-0.12,0.03,0.01,-0.01
2022-12-29 8:20:56.2440,0.012,-0.446,-0.876,0.06,-0.09,-0.13,0.0,-0.01,-0.02
2022-12-29 8:20:56.2540,0.012,-0.445,-0.876,0.06,-0.1,-0.15,-0.03,-0.03,-0.02
2022-12-29 8:20:56.2640,0.012,-0.447,-0.875,0.06,-0.09,-0.15,-0.06,-0.04,-0.01
2022-12-29 8:20:56.2740,0.013,-0.45,-0.874,0.05,-0.06,-0.18,-0.08,-0.02,-0.0
2022-12-29 8:20:56.2840,0.018,-0.453,-0.88,0.01,-0.02,-0.15,-0.06,-0.01,-0.0
2022-12-29 8:20:56.2940,0.023,-0.452,-0.886,-0.04,-0.01,-0.07,-0.03,-0.0,-0.01
2022-12-29 8:20:56.3040,0.023,-0.448,-0.887,-0.06,-0.03,-0.05,0.0,0.01,-0.01
2022-12-29 8:20:56.3140,0.02,-0.447,-0.888,-0.03,-0.07,-0.05,0.02,0.03,-0.02
2022-12-29 8:20:56.3230,0.019,-0.451,-0.888,0.0,-0.04,-0.03,0.02,0.06,-0.02
2022-12-29 8:20:56.3340,0.02,-0.454,-0.886,0.0,0.0,-0.04,0.03,0.06,-0.02
2022-12-29 8:20:56.3440,0.02,-0.453,-0.882,-0.01,0.0,-0.08,0.02,0.06,-0.02
2022-12-29 8:20:56.3540,0.02,-0.45,-0.881,0.0,-0.03,-0.11,0.02,0.06,-0.02
2022-12-29 8:20:56.3630,0.025,-0.449,-0.886,-0.02,-0.05,-0.08,-0.0,0.05,-0.01
2022-12-29 8:20:56.3740,0.028,-0.447,-0.888,-0.07,-0.06,-0.04,-0.03,0.03,-0.02
2022-12-29 8:20:56.3830,0.026,-0.447,-0.884,-0.05,-0.07,-0.06,-0.04,0.03,-0.01
2022-12-29 8:20:56.3930,0.024,-0.449,-0.883,-0.02,-0.05,-0.1,-0.04,0.04,-0.0
2022-12-29 8:20:56.4030,0.031,-0.452,-0.889,-0.05,-0.01,-0.06,-0.02,0.03,0.0
2022-12-29 8:20:56.4130,0.037,-0.447,-0.895,-0.13,-0.04,0.01,0.0,0.01,-0.0
2022-12-29 8:20:56.4230,0.036,-0.443,-0.895,-0.14,-0.09,0.02,0.01,0.01,-0.01
2022-12-29 8:20:56.4330,0.031,-0.445,-0.894,-0.1,-0.09,0.03,-0.0,0.02,-0.02
2022-12-29 8:20:56.4430,0.026,-0.45,-0.888,-0.05,-0.05,-0.02,-0.01,0.03,-0.01
2022-12-29 8:20:56.4530,0.025,-0.455,-0.889,-0.01,0.0,-0.05,-0.0,0.03,-0.0
2022-12-29 8:20:56.4630,0.031,-0.455,-0.896,-0.05,0.03,0.02,0.01,0.01,0.0
2022-12-29 8:20:56.4730,0.034,-0.45,-0.894,-0.09,0.0,0.04,0.01,-0.0,0.0
2022-12-29 8:20:56.4830,0.033,-0.444,-0.892,-0.1,-0.07,0.0,0.01,-0.01,-0.0
2022-12-29 8:20:56.4930,0.028,-0.445,-0.891,-0.06,-0.08,-0.01,-0.01,-0.03,0.0
2022-12-29 8:20:56.5030,0.025,-0.448,-0.887,-0.03,-0.06,-0.04,-0.03,-0.03,0.0
2022-12-29 8:20:56.5130,0.022,-0.45,-0.885,0.01,-0.02,-0.07,-0.04,-0.03,0.01
2022-12-29 8:20:56.5230,0.022,-0.451,-0.886,0.01,-0.01,-0.07,-0.04,-0.03,0.01
2022-12-29 8:20:56.5330,0.021,-0.449,-0.888,0.01,-0.01,-0.05,-0.03,-0.04,0.01
2022-12-29 8:20:56.5430,0.022,-0.444,-0.886,0.0,-0.05,-0.06,-0.01,-0.04,0.01
2022-12-29 8:20:56.5530,0.019,-0.44,-0.882,0.02,-0.09,-0.1,-0.01,-0.03,0.01
2022-12-29 8:20:56.5630,0.017,-0.44,-0.882,0.04,-0.11,-0.11,-0.03,-0.01,-0.0
2022-12-29 8:20:56.5730,0.016,-0.44,-0.881,0.06,-0.1,-0.12,-0.03,-0.0,-0.0
2022-12-29 8:20:56.5830,0.018,-0.44,-0.878,0.05,-0.1,-0.14,-0.03,0.01,-0.01
2022-12-29 8:20:56.5930,0.021,-0.44,-0.878,0.02,-0.1,-0.16,-0.03,0.03,-0.0
2022-12-29 8:20:56.6030,0.024,-0.442,-0.88,0.0,-0.09,-0.15,-0.01,0.05,0.0
2022-12-29 8:20:56.6130,0.027,-0.445,-0.885,-0.02,-0.06,-0.11,0.01,0.07,-0.0
2022-12-29 8:20:56.6230,0.028,-0.445,-0.889,-0.04,-0.05,-0.06,0.03,0.08,-0.01
2022-12-29 8:20:56.6320,0.029,-0.447,-0.894,-0.03,-0.04,-0.02,0.04,0.09,-0.01
2022-12-29 8:20:56.6420,0.033,-0.45,-0.897,-0.06,-0.02,0.03,0.04,0.07,-0.01
2022-12-29 8:20:56.6520,0.034,-0.451,-0.897,-0.08,0.0,0.05,0.03,0.05,-0.01
2022-12-29 8:20:56.6620,0.034,-0.45,-0.894,-0.08,-0.01,0.02,0.02,0.04,0.01
2022-12-29 8:20:56.6720,0.035,-0.449,-0.894,-0.08,-0.02,0.01,0.01,0.02,0.02
2022-12-29 8:20:56.6820,0.038,-0.448,-0.895,-0.11,-0.03,0.02,-0.0,-0.02,0.02
2022-12-29 8:20:56.6920,0.035,-0.447,-0.895,-0.1,-0.04,0.02,-0.02,-0.04,0.02
2022-12-29 8:20:56.7020,0.032,-0.447,-0.895,-0.07,-0.03,0.01,-0.03,-0.07,0.01
2022-12-29 8:20:56.7120,0.032,-0.446,-0.896,-0.07,-0.04,0.03,-0.05,-0.09,0.01
2022-12-29 8:20:56.7220,0.029,-0.444,-0.893,-0.07,-0.05,0.01,-0.07,-0.1,0.02
2022-12-29 8:20:56.7320,0.024,-0.444,-0.886,-0.03,-0.05,-0.06,-0.07,-0.09,0.01
2022-12-29 8:20:56.7420,0.018,-0.444,-0.88,0.02,-0.04,-0.12,-0.06,-0.06,0.01
2022-12-29 8:20:56.7520,0.016,-0.446,-0.879,0.05,-0.03,-0.16,-0.05,-0.04,0.01
2022-12-29 8:20:56.7620,0.015,-0.447,-0.881,0.08,0.0,-0.14,-0.03,-0.02,0.01
2022-12-29 8:20:56.7720,0.018,-0.444,-0.883,0.05,-0.02,-0.12,-0.01,0.01,0.01
2022-12-29 8:20:56.7820,0.021,-0.441,-0.886,0.03,-0.05,-0.1,0.0,0.02,0.0
2022-12-29 8:20:56.7920,0.024,-0.439,-0.891,0.01,-0.08,-0.06,0.02,0.03,-0.0
2022-12-29 8:20:56.8020,0.026,-0.435,-0.893,-0.03,-0.11,-0.02,0.03,0.01,-0.01
2022-12-29 8:20:56.8120,0.024,-0.434,-0.894,-0.02,-0.14,-0.01,0.02,-0.0,-0.02
2022-12-29 8:20:56.8220,0.023,-0.436,-0.891,-0.01,-0.13,-0.02,-0.0,-0.02,-0.02
2022-12-29 8:20:56.8320,0.021,-0.441,-0.888,0.01,-0.08,-0.05,-0.02,-0.03,-0.01
2022-12-29 8:20:56.8420,0.021,-0.445,-0.89,0.02,-0.03,-0.06,-0.02,-0.03,-0.0
2022-12-29 8:20:56.8520,0.024,-0.445,-0.891,0.0,-0.02,-0.04,-0.01,-0.03,0.0
2022-12-29 8:20:56.8620,0.022,-0.443,-0.89,-0.01,-0.03,-0.04,0.0,-0.03,-0.0
2022-12-29 8:20:56.8720,0.019,-0.443,-0.889,0.02,-0.05,-0.06,0.0,-0.02,-0.01
2022-12-29 8:20:56.8820,0.017,-0.445,-0.888,0.04,-0.03,-0.07,0.01,0.0,-0.01
2022-12-29 8:20:56.8920,0.019,-0.447,-0.886,0.04,0.0,-0.09,0.01,0.02,-0.01
2022-12-29 8:20:56.9010,0.022,-0.448,-0.886,0.02,0.01,-0.09,0.01,0.03,-0.01
2022-12-29 8:20:56.9110,0.024,-0.446,-0.89,0.0,0.0,-0.06,0.02,0.03,-0.0
2022-12-29 8:20:56.9210,0.026,-0.442,-0.89,-0.02,-0.04,-0.04,0.02,0.02,-0.0
2022-12-29 8:20:56.9310,0.026,-0.436,-0.886,-0.03,-0.1,-0.07,0.01,0.02,-0.01
2022-12-29 8:20:56.9410,0.025,-0.434,-0.881,-0.02,-0.13,-0.12,0.0,0.03,-0.01
2022-12-29 8:20:56.9510,0.024,-0.436,-0.88,0.0,-0.13,-0.14,-0.01,0.05,-0.01
2022-12-29 8:20:56.9610,0.026,-0.441,-0.884,-0.01,-0.08,-0.12,-0.0,0.06,-0.0
2022-12-29 8:20:56.9710,0.032,-0.443,-0.884,-0.04,-0.05,-0.1,0.02,0.05,0.0
2022-12-29 8:20:56.9810,0.034,-0.443,-0.883,-0.08,-0.05,-0.12,0.04,0.05,-0.0
2022-12-29 8:20:56.9910,0.035,-0.445,-0.886,-0.08,-0.05,-0.09,0.03,0.06,-0.0
2022-12-29 8:20:57.0010,0.036,-0.448,-0.89,-0.09,-0.01,-0.06,0.02,0.06,0.0
2022-12-29 8:20:57.0110,0.04,-0.451,-0.899,-0.11,0.02,0.01,-0.0,0.03,0.01
2022-12-29 8:20:57.0210,0.042,-0.448,-0.902,-0.15,0.01,0.08,-0.02,-0.01,0.0
2022-12-29 8:20:57.0310,0.039,-0.446,-0.897,-0.14,-0.02,0.05,-0.04,-0.03,-0.0
2022-12-29 8:20:57.0410,0.034,-0.443,-0.89,-0.1,-0.03,-0.02,-0.05,-0.04,-0.0
2022-12-29 8:20:57.0510,0.027,-0.441,-0.884,-0.04,-0.05,-0.09,-0.07,-0.05,-0.01
2022-12-29 8:20:57.0610,0.02,-0.443,-0.877,0.03,-0.04,-0.16,-0.08,-0.04,-0.01
2022-12-29 8:20:57.0710,0.016,-0.443,-0.872,0.08,-0.02,-0.22,-0.09,-0.02,0.0
2022-12-29 8:20:57.0810,0.015,-0.439,-0.869,0.1,-0.03,-0.26,-0.11,0.0,0.01
2022-12-29 8:20:57.0910,0.013,-0.431,-0.865,0.12,-0.08,-0.3,-0.14,0.02,0.01
2022-12-29 8:20:57.1010,0.006,-0.426,-0.868,0.16,-0.14,-0.32,-0.16,0.04,0.03
2022-12-29 8:20:57.1110,-0.003,-0.424,-0.884,0.27,-0.15,-0.21,-0.17,0.06,0.05
2022-12-29 8:20:57.1210,0.001,-0.428,-0.904,0.28,-0.13,-0.02,-0.12,0.09,0.08
2022-12-29 8:20:57.1310,0.01,-0.427,-0.916,0.21,-0.09,0.14,-0.04,0.08,0.08
2022-12-29 8:20:57.1400,0.021,-0.42,-0.905,0.1,-0.16,0.11,0.04,0.12,0.06
2022-12-29 8:20:57.1500,0.026,-0.422,-0.9,0.06,-0.19,0.01,0.11,0.14,0.03
2022-12-29 8:20:57.1600,0.039,-0.427,-0.901,-0.04,-0.16,0.03,0.14,0.17,-0.01
2022-12-29 8:20:57.1700,0.043,-0.44,-0.905,-0.11,-0.07,0.06,0.14,0.18,-0.04
2022-12-29 8:20:57.1800,0.046,-0.451,-0.911,-0.1,0.05,0.11,0.11,0.16,-0.05
2022-12-29 8:20:57.1900,0.055,-0.453,-0.919,-0.16,0.09,0.19,0.08,0.12,-0.06
2022-12-29 8:20:57.2000,0.061,-0.453,-0.922,-0.23,0.09,0.24,0.06,0.05,-0.05
2022-12-29 8:20:57.2100,0.063,-0.452,-0.919,-0.26,0.08,0.24,0.04,-0.01,-0.04
2022-12-29 8:20:57.2200,0.065,-0.451,-0.912,-0.29,0.07,0.19,0.02,-0.06,-0.02
2022-12-29 8:20:57.2300,0.063,-0.445,-0.902,-0.29,0.03,0.1,0.01,-0.1,-0.01
2022-12-29 8:20:57.2400,0.058,-0.443,-0.894,-0.26,-0.01,0.0,0.0,-0.1,0.01
2022-12-29 8:20:57.2500,0.055,-0.442,-0.892,-0.23,-0.02,-0.04,0.02,-0.12,0.02
2022-12-29 8:20:57.2600,0.05,-0.437,-0.891,-0.21,-0.05,-0.04,0.02,-0.16,0.02
2022-12-29 8:20:57.2700,0.042,-0.431,-0.89,-0.15,-0.11,-0.05,0.0,-0.19,0.02
2022-12-29 8:20:57.2800,0.032,-0.431,-0.884,-0.08,-0.14,-0.09,-0.03,-0.19,0.02
2022-12-29 8:20:57.2900,0.025,-0.436,-0.879,-0.01,-0.1,-0.15,-0.06,-0.18,0.02
2022-12-29 8:20:57.3000,0.018,-0.439,-0.875,0.04,-0.05,-0.2,-0.07,-0.17,0.02
2022-12-29 8:20:57.3100,0.008,-0.44,-0.875,0.12,-0.03,-0.23,-0.06,-0.14,0.02
2022-12-29 8:20:57.3200,0.002,-0.438,-0.877,0.19,-0.03,-0.21,-0.04,-0.11,0.02
2022-12-29 8:20:57.3300,-0.0,-0.432,-0.882,0.22,-0.07,-0.18,-0.02,-0.09,0.01
2022-12-29 8:20:57.3400,0.002,-0.426,-0.889,0.22,-0.13,-0.11,-0.02,-0.06,0.01
2022-12-29 8:20:57.3500,0.008,-0.419,-0.894,0.15,-0.2,-0.03,-0.02,-0.04,-0.02
2022-12-29 8:20:57.3600,0.008,-0.42,-0.882,0.14,-0.22,-0.11,0.0,-0.01,-0.04
2022-12-29 8:20:57.3700,0.01,-0.423,-0.881,0.13,-0.2,-0.17,0.03,0.02,-0.04
2022-12-29 8:20:57.3800,0.012,-0.426,-0.886,0.12,-0.16,-0.14,0.06,0.05,-0.04
2022-12-29 8:20:57.3900,0.023,-0.427,-0.892,0.05,-0.16,-0.07,0.07,0.07,-0.05
2022-12-29 8:20:57.3990,0.026,-0.427,-0.895,-0.03,-0.16,-0.02,0.09,0.06,-0.07
2022-12-29 8:20:57.4100,0.021,-0.429,-0.898,0.03,-0.16,0.0,0.09,0.06,-0.07
2022-12-29 8:20:57.4200,0.025,-0.43,-0.894,0.04,-0.14,0.01,0.07,0.06,-0.09
2022-12-29 8:20:57.4290,0.032,-0.43,-0.891,-0.05,-0.16,-0.06,0.06,0.05,-0.12
2022-12-29 8:20:57.4390,0.019,-0.441,-0.908,0.04,-0.08,0.05,0.03,-0.02,-0.13
2022-12-29 8:20:57.4490,0.026,-0.447,-0.929,0.06,0.0,0.26,-0.01,-0.1,-0.13
2022-12-29 8:20:57.4590,0.039,-0.449,-0.934,-0.08,0.03,0.38,-0.06,-0.16,-0.1
2022-12-29 8:20:57.4690,0.051,-0.451,-0.919,-0.2,0.07,0.29,-0.08,-0.16,-0.08
2022-12-29 8:20:57.4790,0.059,-0.439,-0.91,-0.34,0.02,0.15,-0.07,-0.17,-0.09
2022-12-29 8:20:57.4890,0.045,-0.436,-0.895,-0.28,-0.07,0.05,-0.05,-0.18,-0.09
2022-12-29 8:20:57.4990,0.037,-0.437,-0.875,-0.17,-0.06,-0.15,-0.02,-0.16,-0.08
2022-12-29 8:20:57.5090,0.033,-0.443,-0.868,-0.13,-0.03,-0.28,0.01,-0.12,-0.08
2022-12-29 8:20:57.5190,0.031,-0.452,-0.872,-0.1,0.06,-0.27,0.03,-0.1,-0.06
2022-12-29 8:20:57.5290,0.031,-0.464,-0.875,-0.1,0.17,-0.23,0.04,-0.09,-0.03
2022-12-29 8:20:57.5390,0.033,-0.469,-0.876,-0.13,0.26,-0.21,0.04,-0.1,-0.0
2022-12-29 8:20:57.5490,0.036,-0.463,-0.876,-0.16,0.23,-0.2,0.02,-0.1,0.01
2022-12-29 8:20:57.5590,0.036,-0.454,-0.876,-0.18,0.14,-0.21,-0.02,-0.09,0.01
2022-12-29 8:20:57.5690,0.03,-0.45,-0.877,-0.17,0.07,-0.21,-0.06,-0.09,0.02
2022-12-29 8:20:57.5790,0.036,-0.442,-0.881,-0.13,0.05,-0.19,-0.09,-0.09,0.01
2022-12-29 8:20:57.5890,0.024,-0.439,-0.883,-0.19,-0.04,-0.14,-0.11,-0.1,0.02
2022-12-29 8:20:57.5990,0.008,-0.448,-0.864,0.08,0.07,-0.26,-0.11,-0.07,0.05
2022-12-29 8:20:57.6090,0.03,-0.444,-0.864,-0.09,0.06,-0.38,-0.1,-0.01,0.07
2022-12-29 8:20:57.6200,0.03,-0.441,-0.876,-0.17,0.05,-0.27,-0.08,0.05,0.06
2022-12-29 8:20:57.6290,0.016,-0.429,-0.892,-0.06,-0.03,-0.14,-0.06,0.04,0.06
2022-12-29 8:20:57.6390,0.003,-0.425,-0.882,0.06,-0.13,-0.12,-0.04,0.07,0.07
2022-12-29 8:20:57.6490,-0.004,-0.43,-0.891,0.22,-0.06,-0.18,-0.02,0.06,0.07
2022-12-29 8:20:57.6590,0.013,-0.415,-0.928,0.08,-0.15,0.15,-0.03,-0.0,0.05
2022-12-29 8:20:57.6690,0.016,-0.406,-0.937,-0.01,-0.28,0.36,-0.05,-0.05,0.03
2022-12-29 8:20:57.6780,0.007,-0.412,-0.924,0.04,-0.27,0.29,-0.08,-0.07,0.02
2022-12-29 8:20:57.6890,0.002,-0.419,-0.905,0.12,-0.17,0.09,-0.09,-0.07,-0.0
2022-12-29 8:20:57.6980,0.001,-0.42,-0.904,0.1,-0.14,0.01,-0.1,-0.07,-0.01
2022-12-29 8:20:57.7080,-0.003,-0.417,-0.907,0.16,-0.14,0.05,-0.09,-0.09,-0.01
2022-12-29 8:20:57.7180,0.005,-0.411,-0.908,0.11,-0.18,0.04,-0.08,-0.09,-0.02
2022-12-29 8:20:57.7280,-0.007,-0.406,-0.917,0.1,-0.24,0.13,-0.06,-0.11,-0.04
2022-12-29 8:20:57.7380,-0.004,-0.409,-0.902,0.22,-0.24,0.06,-0.02,-0.09,-0.06
2022-12-29 8:20:57.7480,0.011,-0.421,-0.899,0.0,-0.16,-0.05,0.03,-0.08,-0.06
2022-12-29 8:20:57.7580,-0.012,-0.427,-0.901,0.12,-0.05,0.0,0.07,-0.07,-0.05
2022-12-29 8:20:57.7680,-0.014,-0.423,-0.885,0.26,-0.08,-0.11,0.11,-0.02,-0.05
2022-12-29 8:20:57.7780,-0.004,-0.424,-0.883,0.17,-0.12,-0.2,0.13,0.02,-0.06
2022-12-29 8:20:57.7880,0.004,-0.428,-0.9,0.11,-0.08,-0.09,0.12,0.01,-0.07
2022-12-29 8:20:57.7980,0.013,-0.431,-0.91,0.01,-0.06,0.08,0.1,-0.01,-0.08
2022-12-29 8:20:57.8080,0.015,-0.434,-0.91,-0.04,-0.03,0.09,0.08,-0.05,-0.07
2022-12-29 8:20:57.8180,0.008,-0.43,-0.911,0.02,-0.05,0.14,0.05,-0.1,-0.07
2022-12-29 8:20:57.8280,0.029,-0.431,-0.881,-0.1,-0.07,-0.07,0.04,-0.09,-0.07
2022-12-29 8:20:57.8380,0.032,-0.438,-0.88,-0.27,-0.03,-0.24,0.04,-0.1,-0.07
2022-12-29 8:20:57.8480,0.016,-0.441,-0.89,-0.12,0.03,-0.11,0.04,-0.09,-0.05
2022-12-29 8:20:57.8580,0.015,-0.445,-0.886,-0.06,0.05,-0.12,0.04,-0.07,-0.03
2022-12-29 8:20:57.8680,0.018,-0.448,-0.9,-0.09,0.1,-0.07,0.03,-0.1,-0.01
2022-12-29 8:20:57.8780,0.021,-0.437,-0.912,-0.14,0.04,0.11,-0.0,-0.15,0.0
2022-12-29 8:20:57.8880,0.025,-0.428,-0.902,-0.18,-0.08,0.06,-0.01,-0.14,0.01
2022-12-29 8:20:57.8980,0.029,-0.428,-0.902,-0.25,-0.1,0.01,0.01,-0.1,0.03
2022-12-29 8:20:57.9080,0.015,-0.433,-0.904,-0.19,-0.07,0.05,0.06,-0.08,0.04
2022-12-29 8:20:57.9180,-0.003,-0.432,-0.896,0.01,-0.06,0.0,0.12,-0.03,0.04
2022-12-29 8:20:57.9280,-0.008,-0.433,-0.896,0.09,-0.08,-0.04,0.16,0.01,0.04
2022-12-29 8:20:57.9380,-0.007,-0.44,-0.901,0.1,-0.05,0.03,0.19,0.01,0.03
2022-12-29 8:20:57.9480,-0.002,-0.451,-0.892,0.06,0.03,-0.01,0.2,0.04,0.02
2022-12-29 8:20:57.9570,0.001,-0.456,-0.882,0.03,0.09,-0.11,0.2,0.06,0.01
2022-12-29 8:20:57.9670,0.0,-0.449,-0.88,0.04,0.05,-0.14,0.19,0.06,0.0
2022-12-29 8:20:57.9770,0.0,-0.441,-0.87,0.04,-0.06,-0.19,0.17,0.06,-0.01
2022-12-29 8:20:57.9880,-0.0,-0.438,-0.866,0.06,-0.12,-0.27,0.15,0.05,-0.02
2022-12-29 8:20:57.9970,-0.001,-0.441,-0.865,0.06,-0.12,-0.27,0.1,0.03,-0.02
2022-12-29 8:20:58.0070,-0.0,-0.447,-0.866,0.07,-0.06,-0.27,0.05,0.01,-0.01
2022-12-29 8:20:58.0170,0.002,-0.448,-0.869,0.05,-0.03,-0.24,-0.0,-0.01,-0.02
2022-12-29 8:20:58.0270,0.0,-0.447,-0.868,0.04,-0.04,-0.23,-0.06,-0.02,-0.02
2022-12-29 8:20:58.0370,-0.005,-0.449,-0.86,0.09,-0.01,-0.3,-0.11,-0.01,-0.01
2022-12-29 8:20:58.0470,-0.004,-0.45,-0.858,0.1,0.0,-0.35,-0.13,0.0,-0.02
2022-12-29 8:20:58.0570,-0.008,-0.449,-0.862,0.12,0.02,-0.34,-0.15,0.02,-0.02
2022-12-29 8:20:58.0670,-0.006,-0.451,-0.869,0.14,0.03,-0.3,-0.18,0.03,-0.04
2022-12-29 8:20:58.0770,0.002,-0.455,-0.879,0.08,0.09,-0.2,-0.23,0.04,-0.06
2022-12-29 8:20:58.0870,0.011,-0.459,-0.885,0.01,0.15,-0.15,-0.24,0.07,-0.05
2022-12-29 8:20:58.0970,0.025,-0.457,-0.902,-0.11,0.17,-0.03,-0.22,0.06,-0.04
2022-12-29 8:20:58.1070,0.032,-0.451,-0.913,-0.2,0.15,0.11,-0.18,0.05,-0.04
2022-12-29 8:20:58.1170,0.032,-0.437,-0.919,-0.23,0.06,0.16,-0.13,0.03,-0.04
2022-12-29 8:20:58.1270,0.029,-0.42,-0.929,-0.2,-0.1,0.24,-0.09,-0.0,-0.05
2022-12-29 8:20:58.1370,0.023,-0.409,-0.935,-0.15,-0.23,0.33,-0.06,-0.04,-0.05
2022-12-29 8:20:58.1470,0.017,-0.406,-0.929,-0.1,-0.28,0.3,-0.04,-0.07,-0.05
2022-12-29 8:20:58.1570,0.011,-0.408,-0.912,-0.05,-0.27,0.18,-0.04,-0.06,-0.04
2022-12-29 8:20:58.1670,0.006,-0.414,-0.892,0.01,-0.23,-0.03,-0.03,-0.02,-0.03
2022-12-29 8:20:58.1770,0.004,-0.421,-0.883,0.04,-0.16,-0.15,-0.0,-0.0,-0.02
2022-12-29 8:20:58.1870,0.003,-0.426,-0.878,0.06,-0.1,-0.21,0.01,0.03,-0.0
2022-12-29 8:20:58.1960,0.005,-0.428,-0.883,0.06,-0.07,-0.21,0.03,0.07,0.01
2022-12-29 8:20:58.2070,0.009,-0.432,-0.888,0.03,-0.05,-0.15,0.04,0.08,0.01
2022-12-29 8:20:58.2160,0.011,-0.434,-0.892,0.01,-0.02,-0.1,0.04,0.06,0.0
2022-12-29 8:20:58.2270,0.015,-0.436,-0.896,-0.02,0.0,-0.06,0.03,0.04,0.0
2022-12-29 8:20:58.2360,0.016,-0.437,-0.901,-0.04,0.01,-0.01,0.0,0.03,0.01
2022-12-29 8:20:58.2460,0.017,-0.439,-0.905,-0.05,0.04,0.02,-0.02,-0.0,0.01
2022-12-29 8:20:58.2560,0.016,-0.436,-0.907,-0.04,0.03,0.06,-0.04,-0.02,0.01
2022-12-29 8:20:58.2660,0.014,-0.432,-0.906,-0.03,-0.01,0.05,-0.04,-0.03,0.03
2022-12-29 8:20:58.2760,0.012,-0.43,-0.906,-0.02,-0.03,0.05,-0.02,-0.04,0.03
2022-12-29 8:20:58.2860,0.011,-0.426,-0.904,-0.01,-0.07,0.03,-0.0,-0.04,0.03
2022-12-29 8:20:58.2960,0.009,-0.424,-0.901,0.01,-0.11,0.0,0.01,-0.02,0.03
2022-12-29 8:20:58.3060,0.009,-0.427,-0.896,0.01,-0.08,-0.03,0.03,0.01,0.02
2022-12-29 8:20:58.3160,0.012,-0.429,-0.896,0.0,-0.06,-0.07,0.05,0.03,0.02
2022-12-29 8:20:58.3260,0.015,-0.426,-0.9,-0.03,-0.08,-0.02,0.06,0.01,0.01
2022-12-29 8:20:58.3360,0.015,-0.426,-0.899,-0.05,-0.1,-0.02,0.06,0.0,-0.0
2022-12-29 8:20:58.3460,0.013,-0.429,-0.893,-0.03,-0.09,-0.05,0.03,-0.0,-0.01
2022-12-29 8:20:58.3560,0.012,-0.434,-0.883,-0.01,-0.04,-0.12,-0.01,0.01,-0.01
2022-12-29 8:20:58.3660,0.013,-0.442,-0.876,-0.01,0.04,-0.23,-0.04,0.03,-0.01
2022-12-29 8:20:58.3760,0.018,-0.445,-0.883,-0.04,0.09,-0.21,-0.05,0.03,0.01
2022-12-29 8:20:58.3860,0.02,-0.447,-0.888,-0.08,0.11,-0.14,-0.04,0.04,0.04
2022-12-29 8:20:58.3960,0.02,-0.445,-0.887,-0.08,0.11,-0.14,-0.02,0.05,0.06
2022-12-29 8:20:58.4060,0.015,-0.434,-0.898,-0.07,0.04,-0.1,-0.01,0.04,0.07
2022-12-29 8:20:58.4160,0.017,-0.42,-0.915,0.0,-0.08,0.08,-0.01,0.0,0.06
2022-12-29 8:20:58.4260,0.033,-0.415,-0.918,-0.19,-0.2,0.16,-0.02,-0.02,0.05
2022-12-29 8:20:58.4360,0.022,-0.425,-0.911,-0.16,-0.13,0.13,-0.02,-0.03,0.04
2022-12-29 8:20:58.4460,0.011,-0.428,-0.903,-0.03,-0.05,0.03,-0.03,-0.05,0.04
2022-12-29 8:20:58.4560,0.011,-0.423,-0.906,-0.01,-0.09,0.02,-0.03,-0.06,0.04
2022-12-29 8:20:58.4660,0.005,-0.422,-0.906,0.02,-0.11,0.04,-0.04,-0.08,0.03
2022-12-29 8:20:58.4750,-0.001,-0.423,-0.901,0.08,-0.09,0.01,-0.04,-0.1,0.04
2022-12-29 8:20:58.4850,-0.004,-0.422,-0.895,0.1,-0.1,-0.05,-0.03,-0.09,0.03
2022-12-29 8:20:58.4950,-0.007,-0.422,-0.891,0.13,-0.1,-0.1,-0.01,-0.07,0.02
2022-12-29 8:20:58.5050,-0.007,-0.42,-0.89,0.13,-0.11,-0.12,0.01,-0.05,0.02
2022-12-29 8:20:58.5150,-0.011,-0.415,-0.89,0.15,-0.15,-0.13,0.03,-0.03,0.0
2022-12-29 8:20:58.5250,-0.013,-0.413,-0.893,0.19,-0.19,-0.1,0.04,0.01,0.0
2022-12-29 8:20:58.5350,-0.012,-0.412,-0.894,0.18,-0.21,-0.08,0.07,0.03,0.0
2022-12-29 8:20:58.5450,-0.006,-0.412,-0.893,0.15,-0.22,-0.08,0.1,0.04,0.01
2022-12-29 8:20:58.5550,0.008,-0.419,-0.894,0.04,-0.2,-0.08,0.14,0.04,0.01
2022-12-29 8:20:58.5650,0.014,-0.43,-0.893,-0.06,-0.1,-0.07,0.15,0.03,-0.0
2022-12-29 8:20:58.5750,0.01,-0.437,-0.896,-0.05,-0.03,-0.06,0.13,0.03,-0.02
2022-12-29 8:20:58.5850,0.006,-0.442,-0.901,0.01,0.01,0.0,0.09,0.03,-0.02
2022-12-29 8:20:58.5950,0.011,-0.445,-0.902,0.0,0.05,0.03,0.05,0.02,-0.01
2022-12-29 8:20:58.6050,0.017,-0.447,-0.895,-0.07,0.08,-0.01,0.03,0.0,-0.0
2022-12-29 8:20:58.6150,0.018,-0.444,-0.889,-0.11,0.06,-0.09,0.03,0.0,0.0
2022-12-29 8:20:58.6250,0.016,-0.441,-0.886,-0.09,0.03,-0.12,0.02,0.01,0.0
2022-12-29 8:20:58.6350,0.015,-0.441,-0.884,-0.07,0.01,-0.15,0.02,0.01,0.0
2022-12-29 8:20:58.6450,0.011,-0.439,-0.883,-0.04,0.01,-0.16,0.0,0.01,-0.0
2022-12-29 8:20:58.6550,0.009,-0.439,-0.881,-0.01,-0.01,-0.17,-0.01,0.02,0.0
2022-12-29 8:20:58.6650,0.009,-0.436,-0.883,0.0,-0.01,-0.18,-0.02,0.02,0.01
2022-12-29 8:20:58.6750,0.01,-0.433,-0.889,0.0,-0.04,-0.13,-0.04,-0.0,0.01
2022-12-29 8:20:58.6850,0.013,-0.432,-0.894,-0.04,-0.06,-0.07,-0.06,-0.03,0.0
2022-12-29 8:20:58.6950,0.013,-0.43,-0.894,-0.05,-0.07,-0.05,-0.08,-0.05,0.0
2022-12-29 8:20:58.7050,0.011,-0.429,-0.893,-0.04,-0.07,-0.07,-0.11,-0.05,-0.01
2022-12-29 8:20:58.7150,0.007,-0.43,-0.894,0.0,-0.06,-0.08,-0.1,-0.02,-0.01
2022-12-29 8:20:58.7250,0.007,-0.43,-0.897,0.0,-0.05,-0.05,-0.07,0.0,-0.01
2022-12-29 8:20:58.7340,0.007,-0.427,-0.895,0.0,-0.06,-0.05,-0.01,0.02,-0.01
2022-12-29 8:20:58.7440,0.004,-0.424,-0.891,0.03,-0.1,-0.09,0.04,0.05,-0.01
2022-12-29 8:20:58.7540,0.001,-0.428,-0.893,0.07,-0.09,-0.09,0.07,0.08,-0.02
2022-12-29 8:20:58.7640,-0.0,-0.431,-0.895,0.1,-0.06,-0.06,0.08,0.1,-0.02
2022-12-29 8:20:58.7740,0.004,-0.432,-0.894,0.1,-0.04,-0.05,0.07,0.11,-0.03
2022-12-29 8:20:58.7840,0.006,-0.435,-0.893,0.07,-0.04,-0.07,0.05,0.12,-0.03
2022-12-29 8:20:58.7940,0.011,-0.436,-0.899,0.05,-0.01,-0.04,0.05,0.09,-0.02
2022-12-29 8:20:58.8040,0.02,-0.436,-0.91,-0.03,-0.01,0.06,0.03,0.05,-0.01
2022-12-29 8:20:58.8140,0.024,-0.435,-0.913,-0.1,-0.03,0.13,0.01,0.01,-0.01
2022-12-29 8:20:58.8240,0.023,-0.435,-0.908,-0.09,-0.03,0.11,-0.01,-0.0,-0.0
2022-12-29 8:20:58.8340,0.023,-0.438,-0.902,-0.09,-0.01,0.04,-0.0,-0.01,0.01
2022-12-29 8:20:58.8440,0.022,-0.438,-0.897,-0.08,0.0,-0.01,0.02,-0.01,0.01
2022-12-29 8:20:58.8540,0.023,-0.435,-0.895,-0.1,-0.02,-0.04,0.03,-0.01,0.01
2022-12-29 8:20:58.8640,0.021,-0.431,-0.895,-0.08,-0.06,-0.04,0.04,-0.01,0.01
2022-12-29 8:20:58.8740,0.02,-0.431,-0.895,-0.07,-0.08,-0.04,0.01,-0.01,0.01
2022-12-29 8:20:58.8840,0.017,-0.434,-0.895,-0.05,-0.06,-0.03,-0.02,-0.02,0.02
2022-12-29 8:20:58.8940,0.017,-0.437,-0.892,-0.04,-0.02,-0.06,-0.05,-0.02,0.02
2022-12-29 8:20:58.9040,0.017,-0.44,-0.889,-0.04,0.01,-0.1,-0.06,-0.02,0.03
2022-12-29 8:20:58.9140,0.019,-0.443,-0.885,-0.04,0.05,-0.13,-0.07,-0.02,0.04
2022-12-29 8:20:58.9240,0.026,-0.448,-0.884,-0.11,0.09,-0.16,-0.07,-0.0,0.05
2022-12-29 8:20:58.9340,0.028,-0.451,-0.883,-0.16,0.15,-0.17,-0.1,0.04,0.06
2022-12-29 8:20:58.9440,0.02,-0.452,-0.881,-0.1,0.19,-0.2,-0.13,0.07,0.07
2022-12-29 8:20:58.9530,0.016,-0.437,-0.882,-0.04,0.1,-0.19,-0.14,0.07,0.08
2022-12-29 8:20:58.9640,0.008,-0.43,-0.881,0.02,-0.01,-0.21,-0.13,0.07,0.11
2022-12-29 8:20:58.9740,0.007,-0.431,-0.884,0.08,0.0,-0.22,-0.11,0.07,0.13
2022-12-29 8:20:58.9840,0.007,-0.435,-0.895,0.04,0.02,-0.12,-0.11,0.07,0.15
2022-12-29 8:20:58.9930,0.005,-0.441,-0.893,0.11,0.13,-0.1,-0.13,0.09,0.15
2022-12-29 8:20:59.0030,0.021,-0.411,-0.906,-0.03,-0.03,-0.06,-0.17,0.1,0.1
2022-12-29 8:20:59.0130,-0.002,-0.405,-0.902,0.07,-0.23,0.0,-0.17,0.1,0.08
2022-12-29 8:20:59.0230,0.004,-0.409,-0.919,0.19,-0.15,0.05,-0.17,0.06,0.06
2022-12-29 8:20:59.0330,0.023,-0.414,-0.923,-0.02,-0.11,0.17,-0.17,0.05,0.04
2022-12-29 8:20:59.0430,0.03,-0.426,-0.906,-0.12,-0.02,0.07,-0.15,0.07,0.02
2022-12-29 8:20:59.0530,0.034,-0.449,-0.883,-0.16,0.19,-0.17,-0.1,0.11,0.05
2022-12-29 8:20:59.0630,0.046,-0.469,-0.869,-0.22,0.42,-0.33,-0.03,0.14,0.11
2022-12-29 8:20:59.0730,0.072,-0.472,-0.874,-0.42,0.52,-0.4,0.01,0.17,0.19
2022-12-29 8:20:59.0830,0.092,-0.443,-0.91,-0.68,0.39,-0.13,0.01,0.12,0.23
2022-12-29 8:20:59.0930,0.08,-0.384,-0.931,-0.7,-0.15,0.19,-0.05,0.03,0.22
2022-12-29 8:20:59.1030,0.027,-0.37,-0.92,-0.32,-0.49,0.18,-0.11,-0.04,0.2
2022-12-29 8:20:59.1130,0.004,-0.379,-0.913,0.1,-0.4,0.05,-0.18,-0.12,0.19
2022-12-29 8:20:59.1230,-0.001,-0.387,-0.9,0.1,-0.32,-0.04,-0.25,-0.15,0.17
2022-12-29 8:20:59.1330,-0.025,-0.403,-0.888,0.28,-0.15,-0.2,-0.28,-0.14,0.17
2022-12-29 8:20:59.1430,-0.03,-0.407,-0.889,0.39,-0.03,-0.24,-0.26,-0.12,0.19
2022-12-29 8:20:59.1530,-0.028,-0.402,-0.885,0.36,-0.04,-0.24,-0.21,-0.04,0.18
2022-12-29 8:20:59.1630,-0.033,-0.4,-0.877,0.38,-0.07,-0.35,-0.15,0.09,0.17
2022-12-29 8:20:59.1730,-0.03,-0.397,-0.893,0.43,-0.07,-0.3,-0.08,0.2,0.15
2022-12-29 8:20:59.1830,-0.01,-0.387,-0.924,0.29,-0.14,-0.01,-0.03,0.24,0.11
2022-12-29 8:20:59.1930,0.001,-0.382,-0.93,0.15,-0.22,0.18,0.03,0.25,0.09
2022-12-29 8:20:59.2030,0.004,-0.379,-0.908,0.13,-0.27,0.03,0.1,0.3,0.07
2022-12-29 8:20:59.2130,0.016,-0.382,-0.883,0.09,-0.28,-0.2,0.2,0.33,0.02
2022-12-29 8:20:59.2230,0.01,-0.379,-0.863,0.06,-0.28,-0.43,0.28,0.41,-0.01
2022-12-29 8:20:59.2320,0.005,-0.377,-0.871,0.22,-0.36,-0.45,0.32,0.51,-0.04
2022-12-29 8:20:59.2430,0.011,-0.384,-0.896,0.23,-0.35,-0.22,0.32,0.55,-0.04
2022-12-29 8:20:59.2520,0.024,-0.398,-0.906,0.18,-0.26,-0.03,0.31,0.52,-0.04
2022-12-29 8:20:59.2630,0.028,-0.415,-0.898,0.12,-0.12,-0.05,0.31,0.5,-0.03
2022-12-29 8:20:59.2720,0.022,-0.425,-0.886,0.22,-0.02,-0.14,0.3,0.53,-0.0
2022-12-29 8:20:59.2820,0.034,-0.424,-0.884,0.24,-0.02,-0.22,0.31,0.55,0.0
2022-12-29 8:20:59.2920,0.059,-0.42,-0.91,0.05,-0.09,-0.03,0.33,0.51,-0.03
2022-12-29 8:20:59.3020,0.059,-0.419,-0.94,-0.01,-0.13,0.3,0.34,0.44,-0.07
2022-12-29 8:20:59.3120,0.046,-0.416,-0.953,0.14,-0.19,0.52,0.33,0.39,-0.09
2022-12-29 8:20:59.3220,0.045,-0.421,-0.938,0.24,-0.21,0.49,0.32,0.36,-0.1
2022-12-29 8:20:59.3320,0.056,-0.435,-0.913,0.21,-0.11,0.26,0.33,0.36,-0.1
2022-12-29 8:20:59.3420,0.073,-0.445,-0.903,0.08,-0.02,0.11,0.33,0.33,-0.1
2022-12-29 8:20:59.3520,0.084,-0.448,-0.889,0.0,0.02,0.04,0.37,0.16,-0.12
2022-12-29 8:20:59.3620,0.109,-0.435,-0.873,-0.22,-0.11,-0.14,0.41,0.04,-0.14
2022-12-29 8:20:59.3720,0.113,-0.432,-0.885,-0.3,-0.22,-0.11,0.36,0.09,-0.17
2022-12-29 8:20:59.3820,0.128,-0.435,-0.906,-0.4,-0.23,0.13,0.27,0.09,-0.19
2022-12-29 8:20:59.3920,0.132,-0.443,-0.914,-0.48,-0.18,0.26,0.17,0.03,-0.17
2022-12-29 8:20:59.4020,0.119,-0.455,-0.919,-0.41,-0.08,0.32,0.04,-0.03,-0.1
2022-12-29 8:20:59.4120,0.116,-0.466,-0.904,-0.32,0.05,0.26,-0.06,-0.13,-0.05
2022-12-29 8:20:59.4220,0.11,-0.466,-0.89,-0.34,0.09,0.06,-0.13,-0.22,-0.01
2022-12-29 8:20:59.4320,0.097,-0.462,-0.891,-0.21,0.09,0.02,-0.19,-0.28,0.02
2022-12-29 8:20:59.4420,0.095,-0.455,-0.894,-0.2,0.03,0.05,-0.22,-0.32,0.03
2022-12-29 8:20:59.4520,0.077,-0.46,-0.892,-0.12,0.06,0.04,-0.24,-0.36,0.01
2022-12-29 8:20:59.4620,0.059,-0.454,-0.885,0.06,0.09,-0.05,-0.24,-0.31,0.0
2022-12-29 8:20:59.4710,0.052,-0.445,-0.892,0.14,-0.01,-0.05,-0.2,-0.25,-0.0
2022-12-29 8:20:59.4830,0.059,-0.448,-0.902,0.09,0.01,0.06,-0.14,-0.22,-0.01
2022-12-29 8:20:59.4920,0.059,-0.447,-0.902,0.04,0.04,0.09,-0.08,-0.21,-0.01
2022-12-29 8:20:59.5020,0.059,-0.439,-0.894,0.03,-0.03,0.03,-0.01,-0.2,-0.0
2022-12-29 8:20:59.5110,0.054,-0.429,-0.888,0.04,-0.12,-0.05,0.04,-0.18,0.02
2022-12-29 8:20:59.5210,0.051,-0.429,-0.891,0.07,-0.17,-0.05,0.06,-0.2,0.02
2022-12-29 8:20:59.5320,0.053,-0.433,-0.893,0.05,-0.14,-0.02,0.04,-0.21,0.02
2022-12-29 8:20:59.5420,0.056,-0.434,-0.9,-0.01,-0.12,0.04,0.01,-0.24,0.03
2022-12-29 8:20:59.5510,0.05,-0.438,-0.892,-0.01,-0.1,0.03,-0.02,-0.26,0.05
2022-12-29 8:20:59.5610,0.043,-0.441,-0.88,0.05,-0.06,-0.11,-0.04,-0.27,0.05
2022-12-29 8:20:59.5710,0.04,-0.442,-0.881,0.06,-0.03,-0.16,-0.06,-0.26,0.05
2022-12-29 8:20:59.5820,0.042,-0.444,-0.892,0.03,-0.01,-0.07,-0.08,-0.25,0.04
2022-12-29 8:20:59.5910,0.039,-0.445,-0.884,0.01,0.01,-0.06,-0.08,-0.24,0.04
2022-12-29 8:20:59.6010,0.033,-0.441,-0.867,0.05,0.0,-0.24,-0.07,-0.2,0.03
2022-12-29 8:20:59.6110,0.036,-0.433,-0.865,0.05,-0.06,-0.31,-0.05,-0.13,0.0
2022-12-29 8:20:59.6210,0.04,-0.423,-0.872,0.0,-0.16,-0.27,-0.03,-0.06,-0.03
2022-12-29 8:20:59.6310,0.046,-0.423,-0.879,-0.05,-0.2,-0.2,-0.01,-0.02,-0.05
2022-12-29 8:20:59.6410,0.037,-0.432,-0.904,-0.03,-0.12,-0.03,0.01,-0.06,-0.04
2022-12-29 8:20:59.6510,0.064,-0.423,-0.873,-0.1,-0.14,-0.05,0.04,-0.02,-0.04
2022-12-29 8:20:59.6610,0.074,-0.424,-0.862,-0.37,-0.21,-0.38,0.07,0.02,-0.03
2022-12-29 8:20:59.6710,0.058,-0.43,-0.889,-0.24,-0.14,-0.16,0.08,0.03,-0.03
2022-12-29 8:20:59.6810,0.05,-0.426,-0.896,-0.13,-0.17,0.0,0.08,0.02,-0.04
2022-12-29 8:20:59.6910,0.037,-0.431,-0.891,-0.03,-0.16,-0.02,0.05,0.05,-0.04
2022-12-29 8:20:59.7010,0.031,-0.442,-0.893,0.08,-0.08,-0.05,0.05,0.1,-0.04
2022-12-29 8:20:59.7110,0.021,-0.452,-0.904,0.15,0.04,0.05,0.07,0.1,-0.04
2022-12-29 8:20:59.7210,0.02,-0.452,-0.899,0.25,0.06,0.07,0.11,0.11,-0.04
2022-12-29 8:20:59.7300,0.033,-0.457,-0.905,0.16,0.07,0.06,0.12,0.07,-0.01
2022-12-29 8:20:59.7410,0.034,-0.46,-0.913,0.08,0.12,0.18,0.11,0.01,0.02
2022-12-29 8:20:59.7500,0.039,-0.447,-0.9,0.12,0.04,0.12,0.08,0.01,0.05
2022-12-29 8:20:59.7600,0.053,-0.437,-0.896,-0.06,-0.11,0.02,0.06,-0.07,0.06
2022-12-29 8:20:59.7700,0.051,-0.444,-0.882,-0.1,-0.09,-0.03,0.04,-0.1,0.05
2022-12-29 8:20:59.7800,0.042,-0.438,-0.861,-0.04,-0.07,-0.25,0.01,-0.07,0.04
2022-12-29 8:20:59.7910,0.031,-0.417,-0.85,0.05,-0.24,-0.38,-0.02,-0.04,0.02
2022-12-29 8:20:59.8000,0.016,-0.414,-0.852,0.2,-0.36,-0.44,-0.02,-0.01,-0.0
2022-12-29 8:20:59.8100,0.02,-0.428,-0.871,0.24,-0.27,-0.28,-0.02,0.01,-0.02
2022-12-29 8:20:59.8200,0.027,-0.442,-0.877,0.16,-0.12,-0.16,-0.03,0.04,-0.02
2022-12-29 8:20:59.8300,0.029,-0.457,-0.88,0.14,0.02,-0.15,-0.02,0.07,-0.01
2022-12-29 8:20:59.8400,0.033,-0.465,-0.885,0.12,0.15,-0.1,0.01,0.1,-0.0
2022-12-29 8:20:59.8500,0.035,-0.453,-0.886,0.1,0.09,-0.06,0.05,0.1,-0.0
2022-12-29 8:20:59.8600,0.044,-0.451,-0.894,0.06,0.0,-0.04,0.09,0.13,-0.02
2022-12-29 8:20:59.8700,0.056,-0.453,-0.906,-0.05,0.04,0.1,0.1,0.12,-0.04
2022-12-29 8:20:59.8800,0.06,-0.443,-0.908,-0.12,-0.05,0.16,0.1,0.1,-0.04
2022-12-29 8:20:59.8910,0.065,-0.445,-0.914,-0.12,-0.09,0.18,0.08,0.08,-0.03
2022-12-29 8:20:59.9000,0.079,-0.458,-0.919,-0.27,0.01,0.28,0.05,0.03,-0.02
2022-12-29 8:20:59.9100,0.072,-0.462,-0.905,-0.29,0.08,0.2,0.05,-0.0,0.01
2022-12-29 8:20:59.9200,0.056,-0.461,-0.89,-0.13,0.09,0.04,0.05,-0.04,0.04
2022-12-29 8:20:59.9300,0.048,-0.449,-0.883,-0.04,0.01,-0.06,0.04,-0.06,0.06
2022-12-29 8:20:59.9410,0.041,-0.44,-0.884,0.04,-0.12,-0.08,0.01,-0.05,0.05
2022-12-29 8:20:59.9500,0.049,-0.438,-0.877,0.0,-0.15,-0.1,-0.0,-0.04,0.03
2022-12-29 8:20:59.9600,0.051,-0.445,-0.879,-0.05,-0.13,-0.15,-0.01,-0.04,0.02
2022-12-29 8:20:59.9700,0.056,-0.448,-0.879,-0.08,-0.04,-0.1,-0.01,-0.02,0.02
2022-12-29 8:20:59.9790,0.065,-0.435,-0.872,-0.16,-0.13,-0.17,0.01,0.03,0.02
2022-12-29 8:20:59.9900,0.069,-0.431,-0.87,-0.22,-0.22,-0.2,0.05,0.07,0.01
2022-12-29 8:21:00.0000,0.056,-0.433,-0.884,-0.13,-0.22,-0.11,0.1,0.1,0.0
2022-12-29 8:21:00.0100,0.072,-0.439,-0.872,-0.16,-0.19,-0.14,0.14,0.15,-0.01
2022-12-29 8:21:00.0190,0.059,-0.455,-0.907,-0.18,-0.08,0.01,0.16,0.15,-0.02
2022-12-29 8:21:00.0290,0.039,-0.451,-0.926,0.08,-0.02,0.38,0.14,0.16,-0.06
2022-12-29 8:21:00.0400,0.038,-0.435,-0.895,0.17,-0.2,0.23,0.11,0.17,-0.11
2022-12-29 8:21:00.0490,0.044,-0.445,-0.866,0.12,-0.21,-0.15,0.1,0.19,-0.14
2022-12-29 8:21:00.0590,0.023,-0.471,-0.874,0.25,0.01,-0.17,0.09,0.17,-0.12
2022-12-29 8:21:00.0690,0.029,-0.483,-0.883,0.39,0.21,-0.05,0.1,0.1,-0.1
2022-12-29 8:21:00.0790,0.064,-0.474,-0.899,0.11,0.16,0.07,0.08,0.01,-0.1
2022-12-29 8:21:00.0890,0.107,-0.467,-0.891,-0.31,0.06,0.11,0.03,-0.06,-0.11
2022-12-29 8:21:00.0990,0.11,-0.475,-0.882,-0.54,0.08,-0.01,-0.01,-0.13,-0.07
2022-12-29 8:21:00.1090,0.088,-0.484,-0.886,-0.35,0.21,-0.05,-0.07,-0.18,-0.0
2022-12-29 8:21:00.1190,0.076,-0.473,-0.916,-0.24,0.19,0.19,-0.15,-0.21,0.05
2022-12-29 8:21:00.1290,0.049,-0.452,-0.903,-0.07,0.01,0.3,-0.18,-0.24,0.09
2022-12-29 8:21:00.1390,0.033,-0.435,-0.831,0.15,-0.16,-0.33,-0.13,-0.17,0.1
2022-12-29 8:21:00.1490,0.015,-0.425,-0.837,0.25,-0.28,-0.61,-0.08,-0.09,0.08
2022-12-29 8:21:00.1590,0.005,-0.423,-0.86,0.45,-0.34,-0.35,-0.03,-0.04,0.04
2022-12-29 8:21:00.1690,0.022,-0.433,-0.872,0.34,-0.27,-0.21,0.01,-0.01,0.02
2022-12-29 8:21:00.1790,0.034,-0.445,-0.88,0.2,-0.16,-0.1,0.02,0.0,0.01
2022-12-29 8:21:00.1890,0.043,-0.453,-0.883,0.09,-0.05,-0.08,0.02,0.01,0.0
2022-12-29 8:21:00.1990,0.043,-0.446,-0.891,0.07,-0.07,-0.01,0.01,0.01,-0.01
2022-12-29 8:21:00.2090,0.045,-0.442,-0.882,0.07,-0.14,-0.01,0.01,0.01,-0.02
2022-12-29 8:21:00.2190,0.051,-0.446,-0.878,0.02,-0.13,-0.11,0.01,0.02,-0.03
2022-12-29 8:21:00.2290,0.057,-0.454,-0.884,-0.03,-0.06,-0.08,0.01,0.01,-0.04
2022-12-29 8:21:00.2380,0.064,-0.46,-0.897,-0.1,0.02,0.04,0.01,-0.01,-0.02
2022-12-29 8:21:00.2480,0.065,-0.46,-0.897,-0.16,0.03,0.1,0.0,-0.04,0.0
2022-12-29 8:21:00.2590,0.05,-0.461,-0.888,-0.07,0.04,0.02,0.0,-0.04,0.02
2022-12-29 8:21:00.2690,0.037,-0.455,-0.887,0.08,-0.02,-0.04,0.02,-0.04,0.07
2022-12-29 8:21:00.2790,0.041,-0.469,-0.891,0.11,0.05,0.03,0.04,-0.05,0.06
2022-12-29 8:21:00.2880,0.057,-0.467,-0.887,-0.04,0.13,0.0,0.05,-0.04,0.03
2022-12-29 8:21:00.2990,0.064,-0.441,-0.886,-0.15,-0.07,-0.02,0.05,-0.03,0.0
2022-12-29 8:21:00.3090,0.059,-0.437,-0.883,-0.14,-0.24,-0.05,0.04,-0.04,0.0
2022-12-29 8:21:00.3180,0.055,-0.456,-0.885,-0.08,-0.09,-0.04,0.01,-0.06,-0.0
2022-12-29 8:21:00.3280,0.055,-0.456,-0.885,-0.08,-0.01,-0.04,-0.02,-0.05,0.01
2022-12-29 8:21:00.3380,0.048,-0.46,-0.888,-0.06,0.0,-0.01,-0.05,-0.05,0.02
2022-12-29 8:21:00.3490,0.042,-0.461,-0.879,0.03,0.04,-0.05,-0.04,-0.05,0.02
2022-12-29 8:21:00.3580,0.043,-0.458,-0.874,0.03,0.02,-0.14,-0.02,-0.02,0.01
2022-12-29 8:21:00.3680,0.04,-0.452,-0.878,0.04,-0.02,-0.14,-0.0,0.01,0.0
2022-12-29 8:21:00.3780,0.046,-0.441,-0.889,0.04,-0.12,-0.03,0.01,0.03,-0.02
2022-12-29 8:21:00.3880,0.056,-0.436,-0.883,-0.06,-0.21,-0.02,0.04,0.0,-0.02
2022-12-29 8:21:00.3980,0.083,-0.442,-0.87,-0.26,-0.19,-0.14,0.07,-0.03,-0.03
